Time,Temp1F,Temp2F,RH,Pres,AccX,AccZ
499,33.50,32.62,35.84,12.26,-0.512,0.006
1003,40.53,33.50,38.68,12.04,-0.497,-0.053
1507,37.01,24.70,37.73,12.20,-0.675,-0.024
2011,33.50,33.50,38.99,12.11,-0.527,0.065
2514,33.50,35.26,35.84,12.26,-0.631,-0.024
3018,32.62,33.50,34.58,12.26,-0.705,-0.157
3522,22.06,45.81,34.89,12.18,-0.423,-0.127
4025,38.77,30.86,37.10,12.46,-0.512,-0.172
4529,36.13,33.50,35.21,12.35,-0.468,-0.231
5032,37.01,33.50,36.16,12.31,-0.601,-0.261
5536,37.89,33.50,36.31,12.29,-0.542,0.080
6040,39.65,34.38,35.05,12.27,-0.601,-0.127
6544,37.89,33.50,36.00,12.27,-0.660,0.065
7048,36.13,33.50,36.31,12.29,-0.675,0.036
7552,37.01,33.50,36.00,12.27,-0.557,0.125
8055,37.01,32.62,36.00,12.27,-0.601,0.036
8559,37.01,32.62,36.00,12.27,-0.557,0.110
9062,37.01,32.62,35.21,12.29,-1.105,0.095
9566,37.01,33.50,35.68,12.27,-1.075,0.095
10070,37.01,33.50,36.00,12.27,-1.031,-0.068
10573,37.01,32.62,36.16,12.29,-1.120,0.021
11077,38.77,32.62,35.84,12.27,-0.957,0.021
11581,37.89,32.62,36.31,12.29,-0.720,0.036
12085,34.38,31.74,35.05,12.22,-0.675,-0.038
12589,36.13,32.62,35.84,12.26,-0.601,-0.038
13092,37.89,32.62,36.00,12.27,-0.586,0.065
13596,37.01,32.62,35.68,12.27,-0.557,0.139
14100,36.13,32.62,36.47,12.26,-0.586,0.095
14604,36.13,32.62,35.84,12.27,-0.557,0.065
15108,36.13,33.50,35.68,12.27,-0.409,0.080
15611,37.01,33.50,36.16,12.27,-0.379,0.036
16115,37.01,33.50,35.52,12.29,-0.616,0.065
16618,37.89,32.62,35.84,12.27,-0.779,0.110
17122,37.89,33.50,35.84,12.29,-0.764,0.110
17626,36.13,33.50,35.52,12.29,-0.749,0.243
18129,37.01,32.62,36.00,12.27,-0.779,0.125
18633,37.01,32.62,36.00,12.27,-0.749,0.154
19137,37.89,33.50,35.84,12.27,-0.720,0.228
19641,37.89,33.50,36.00,12.27,-0.779,0.184
20145,37.89,33.50,36.47,12.27,-0.927,0.228
20648,40.53,33.50,37.57,12.33,-0.942,0.095
21152,33.50,32.62,37.73,12.20,-0.572,-0.024
21656,53.73,42.29,36.94,12.22,-0.660,-0.275
22160,41.41,31.74,35.21,12.22,-0.512,0.080
22664,37.89,33.50,36.00,12.22,-0.675,-0.216
23168,37.89,33.50,35.84,12.27,-0.586,0.021
23671,31.74,32.62,35.52,12.09,-0.616,-0.024
24175,37.89,33.50,35.52,12.27,-0.601,-0.098
24679,37.89,33.50,35.84,12.27,-0.527,-0.127
25183,37.89,33.50,36.00,12.27,-0.557,-0.112
25687,37.89,33.50,35.84,12.27,-0.631,-0.053
26189,37.89,33.50,36.31,12.27,-0.646,0.006
26693,37.89,33.50,35.84,12.27,-0.660,-0.009
27197,37.89,33.50,36.31,12.29,-0.631,-0.068
27701,38.77,33.50,36.00,12.27,-0.675,-0.053
28205,37.89,33.50,35.84,12.27,-0.675,-0.009
28708,37.01,33.50,35.84,12.27,-0.646,0.036
29212,37.01,33.50,36.00,12.27,-0.631,0.021
29716,37.89,33.50,38.21,12.27,-0.616,-0.024
30220,37.01,33.50,36.00,12.27,-0.660,0.006
30724,38.77,33.50,35.68,12.27,-1.105,0.095
31227,37.89,33.50,36.00,12.27,-1.105,-0.024
31731,36.13,33.50,36.31,12.27,-1.016,0.006
32235,38.77,33.50,36.31,12.27,-1.090,0.036
32739,38.77,33.50,36.00,12.27,-0.942,0.184
33243,37.89,33.50,35.84,12.27,-0.720,0.184
33746,37.89,33.50,35.84,12.27,-0.646,0.080
34249,36.13,33.50,36.47,12.27,-0.720,0.154
34753,37.01,33.50,35.84,12.27,-0.690,0.095
35257,32.62,34.38,36.16,12.20,-0.734,0.154
35761,36.13,33.50,36.16,12.29,-0.749,0.139
36264,36.13,33.50,34.11,12.20,-0.720,0.184
36768,42.29,35.26,38.36,12.16,-0.690,-0.216
37272,40.53,38.77,39.94,12.18,-0.705,-0.216
37776,38.77,33.50,35.05,12.18,-0.690,0.021
38280,37.01,33.50,36.16,12.20,-0.586,0.021
38784,38.77,33.50,36.47,12.27,-0.749,0.213
39287,37.89,33.50,36.16,12.29,-0.764,0.065
39791,37.01,33.50,35.84,12.27,-0.809,0.125
40295,37.01,33.50,35.21,12.29,-0.720,0.095
40799,38.77,33.50,36.00,12.27,-0.764,0.095
41303,25.58,35.26,35.68,12.24,-0.868,-0.038
41806,37.01,33.50,35.37,12.29,-0.883,0.139
42309,37.89,33.50,35.68,12.27,-0.809,0.110
42813,37.89,33.50,35.68,12.27,-0.764,0.169
43317,37.01,33.50,36.16,12.29,-0.794,0.139
43821,37.89,33.50,35.52,12.29,-0.764,0.095
44324,37.89,33.50,35.68,12.27,-0.942,0.154
44828,37.01,33.50,36.00,12.27,-0.823,0.095
45332,37.89,33.50,36.31,12.29,-0.838,0.139
45836,38.77,33.50,35.52,12.27,-0.838,0.080
46340,38.77,33.50,36.00,12.27,-0.838,0.154
46843,38.77,33.50,35.68,12.15,-0.660,0.332
47347,37.89,33.50,36.31,12.29,-0.853,0.095
47851,37.89,33.50,36.16,12.27,-0.883,0.036
48355,37.01,33.50,35.37,12.27,-0.897,0.110
48859,37.89,33.50,36.31,12.27,-0.883,0.095
49362,37.89,33.50,36.00,12.27,-1.001,0.095
49866,37.01,32.62,36.00,12.27,-0.986,0.110
50369,38.77,33.50,36.00,12.27,-0.927,0.095
50873,37.01,33.50,35.84,12.27,-1.016,0.110
51377,37.01,33.50,36.00,12.27,-1.016,0.184
51880,37.01,33.50,35.68,12.27,-0.883,0.095
52384,37.01,33.50,36.16,12.27,-0.971,0.139
52888,37.01,33.50,35.37,12.27,-1.001,0.051
53392,40.53,33.50,37.73,12.35,-0.883,-0.009
53896,54.61,24.70,36.63,12.13,-1.282,0.391
54400,45.81,34.38,35.84,12.20,-1.223,0.169
54903,29.10,18.54,34.11,12.05,-0.942,0.110
55407,38.77,33.50,36.31,12.26,-1.164,-0.186
55911,37.89,33.50,36.00,12.35,-0.986,0.406
56415,38.77,33.50,36.47,12.27,-0.912,-0.009
56919,37.01,33.50,36.31,12.27,-0.942,0.095
57422,37.01,33.50,36.31,12.27,-0.986,0.154
57926,38.77,33.50,36.00,12.27,-0.927,0.199
58430,37.01,33.50,35.84,12.26,-0.912,0.095
58933,40.53,35.26,39.31,12.20,-0.853,0.154
59437,38.77,34.38,35.68,12.27,-0.957,0.110
59940,37.89,33.50,35.68,12.27,-0.942,0.080
60444,39.65,33.50,36.16,12.27,-0.957,0.125
60948,37.01,34.38,35.84,12.27,-0.912,0.169
61452,39.65,33.50,36.47,12.27,-0.957,0.095
61956,38.77,33.50,36.00,12.27,-0.927,0.139
62459,37.01,34.38,36.00,12.27,-0.927,0.110
62963,38.77,33.50,36.16,12.27,-0.927,0.065
63467,37.89,34.38,36.47,12.29,-0.912,0.095
63971,37.01,33.50,36.16,12.29,-0.942,0.095
64475,25.58,32.62,36.16,12.20,-0.734,0.184
64978,37.89,34.38,36.16,12.29,-0.942,0.095
65482,37.01,33.50,35.68,12.26,-0.942,0.110
65986,39.65,33.50,35.21,12.27,-0.912,0.184
66490,39.65,34.38,36.00,12.27,-0.897,0.065
66994,38.77,34.38,36.16,12.27,-0.942,0.051
67496,37.89,33.50,35.37,12.29,-0.957,0.080
68000,38.77,34.38,36.47,12.29,-0.986,0.154
68504,37.01,34.38,36.16,12.27,-0.942,0.080
69008,38.77,34.38,36.00,12.27,-0.986,0.125
69512,37.89,33.50,36.00,12.29,-0.957,0.095
70016,37.89,34.38,36.79,12.31,-0.986,0.065
70519,37.89,34.38,36.31,12.29,-0.957,0.051
71023,38.77,34.38,36.00,12.27,-0.897,0.125
71527,37.89,34.38,36.63,12.31,-0.838,-0.024
72031,39.65,37.89,40.57,12.16,-1.090,0.095
72535,26.46,34.38,39.78,12.13,-1.120,0.021
73038,38.77,33.50,36.79,12.26,-0.734,-0.261
73542,37.01,34.38,36.47,12.20,-0.853,-0.394
74046,38.77,33.50,36.63,12.27,-1.001,0.139
74550,37.01,34.38,36.16,12.29,-0.957,0.080
75054,39.65,34.38,36.16,12.27,-1.016,0.258
75557,38.77,34.38,36.16,12.27,-0.971,0.110
76061,38.77,34.38,36.79,12.27,-0.912,0.065
76564,37.01,34.38,36.63,12.29,-0.897,0.036
77068,38.77,33.50,35.84,12.27,-0.912,0.110
77572,37.01,34.38,36.00,12.27,-0.927,0.065
78075,37.89,34.38,36.47,12.27,-0.971,0.051
78579,37.89,34.38,35.68,12.27,-0.957,0.051
79083,40.53,34.38,35.84,12.27,-1.001,0.065
79587,37.01,34.38,36.16,12.27,-0.957,0.080
80091,39.65,34.38,36.63,12.24,-0.957,0.051
80594,37.89,34.38,36.00,12.27,-0.942,0.125
81098,37.89,34.38,35.84,12.27,-0.942,0.169
81602,37.01,34.38,36.16,12.27,-0.942,0.169
82106,44.93,32.62,39.31,12.05,-0.927,0.228
82610,37.01,34.38,36.16,12.27,-1.001,0.110
83113,40.53,34.38,36.47,12.27,-0.897,0.065
83617,38.77,34.38,36.16,12.29,-0.942,0.051
84121,37.01,34.38,36.16,12.29,-0.942,0.065
84625,38.77,34.38,36.16,12.29,-0.912,-0.009
85128,38.77,34.38,36.63,12.29,-0.957,0.036
85632,39.65,34.38,36.00,12.27,-0.927,0.036
86135,40.53,34.38,36.16,12.29,-1.001,0.095
86639,37.01,34.38,35.84,12.29,-1.001,0.154
87143,37.89,34.38,36.63,12.29,-1.001,0.080
87647,39.65,34.38,36.00,12.29,-0.986,0.021
88151,38.77,34.38,35.84,12.27,-0.927,0.006
88654,37.01,34.38,36.47,12.26,-0.942,-0.053
89158,37.01,34.38,36.31,12.29,-0.927,-0.009
89662,39.65,34.38,37.42,12.16,-1.016,-0.142
90166,20.30,35.26,40.25,12.11,-1.208,-0.320
90670,22.94,32.62,38.36,12.05,-1.016,-0.275
91173,25.58,38.77,39.78,11.89,-1.001,-0.201
91677,45.81,46.69,35.84,12.18,-0.705,-0.216
92181,38.77,34.38,36.47,12.26,-0.986,-0.024
92685,40.53,34.38,36.47,12.27,-0.912,-0.112
93189,37.01,34.38,36.00,12.27,-0.957,-0.024
93692,25.58,35.26,37.10,12.20,-1.090,-0.009
94196,37.01,34.38,36.00,12.27,-0.957,0.051
94699,37.89,34.38,36.16,12.29,-0.942,0.110
95203,37.89,34.38,36.31,12.27,-1.001,0.095
95707,38.77,34.38,36.00,12.27,-0.927,0.139
96210,37.01,34.38,36.63,12.27,-0.927,0.080
96714,39.65,34.38,36.31,12.29,-0.957,0.110
97218,38.77,34.38,36.63,12.27,-0.957,0.110
97722,38.77,34.38,36.31,12.29,-0.986,0.080
98226,37.89,34.38,36.16,12.26,-0.957,0.095
98729,37.89,34.38,36.16,12.27,-0.971,0.139
99233,40.53,35.26,35.37,12.27,-1.031,0.139
99737,39.65,34.38,36.31,12.26,-1.001,0.125
100241,37.89,35.26,36.31,12.26,-0.957,0.065
100745,38.77,34.38,36.31,12.27,-1.045,0.080
101249,39.65,34.38,36.79,12.27,-1.001,0.095
101752,38.77,34.38,36.47,12.27,-0.986,0.169
102256,38.77,34.38,36.47,12.27,-0.957,0.139
102760,37.01,34.38,36.00,12.27,-1.016,0.199
103264,39.65,35.26,36.16,12.27,-1.001,0.036
103768,37.89,34.38,36.16,12.26,-0.986,0.080
104271,37.01,34.38,36.00,12.29,-1.001,0.065
104775,32.62,35.26,36.00,12.26,-1.031,-0.098
105279,41.41,37.89,36.79,12.13,-1.090,0.258
105783,25.58,27.34,36.94,11.96,-1.001,0.065
106287,22.06,40.53,40.89,12.13,-1.031,0.302
106790,37.89,34.38,35.52,12.07,-1.149,0.021
107294,37.01,34.38,36.63,12.37,-1.016,0.362
107798,39.65,34.38,36.00,12.26,-1.001,0.095
108302,38.77,34.38,36.31,12.29,-1.045,0.169
108806,38.77,34.38,37.10,12.26,-1.060,0.080
109309,37.01,34.38,36.79,12.29,-1.016,0.125
109813,39.65,34.38,36.63,12.27,-0.971,0.036
110317,40.53,34.38,36.16,12.26,-1.001,0.065
110821,39.65,34.38,36.79,12.27,-0.971,0.095
111325,37.01,34.38,36.79,12.27,-1.001,0.051
111828,38.77,34.38,36.47,12.27,-1.001,0.125
112332,39.65,34.38,36.31,12.26,-0.986,0.125
112836,39.65,34.38,36.31,12.27,-0.971,0.036
113340,37.89,34.38,36.79,12.27,-1.001,0.036
113844,37.01,34.38,36.47,12.27,-0.942,0.139
114348,38.77,35.26,36.79,12.27,-1.016,0.065
114851,38.77,35.26,36.79,12.27,-0.986,0.036
115355,39.65,34.38,36.63,12.27,-1.016,0.110
115859,39.65,34.38,36.63,12.27,-0.927,0.095
116363,38.77,35.26,36.47,12.27,-0.986,0.125
116867,37.01,35.26,36.47,12.26,-0.971,0.051
117370,37.89,34.38,36.79,12.27,-0.986,0.110
117874,37.01,35.26,36.31,12.27,-1.001,0.051
118378,38.77,34.38,32.21,12.27,-1.016,0.184
118882,40.53,34.38,37.26,12.29,-1.060,0.110
119385,29.10,35.26,37.42,12.26,-1.031,-0.024
119888,40.53,40.53,37.89,12.13,-1.105,-0.157
120392,37.89,27.34,40.25,11.93,-0.868,0.065
120896,37.89,28.22,37.10,12.07,-1.253,0.139
121400,39.65,34.38,40.10,12.26,-0.912,-0.157
121904,38.77,34.38,36.63,12.27,-1.031,-0.053
122407,40.53,34.38,39.62,12.24,-0.942,0.213
122911,39.65,34.38,37.10,12.27,-1.031,0.036
123415,37.89,34.38,36.79,12.29,-1.001,-0.083
123919,40.53,34.38,37.42,12.27,-1.031,0.065
124423,38.77,34.38,37.26,12.29,-1.016,0.065
124926,38.77,34.38,36.94,12.29,-1.016,0.065
125430,38.77,34.38,36.94,12.29,-1.045,0.065
125934,39.65,34.38,36.79,12.29,-1.016,0.065
126438,36.13,34.38,36.47,12.27,-1.075,0.051
126942,36.13,34.38,36.63,12.29,-0.986,-0.009
127446,40.53,34.38,37.26,12.29,-1.075,0.006
127949,38.77,34.38,36.94,12.29,-1.060,0.051
128453,38.77,34.38,36.94,12.27,-1.060,0.051
128957,38.77,34.38,37.26,12.29,-1.075,0.080
129461,38.77,34.38,37.10,12.27,-1.031,0.021
129965,39.65,34.38,37.42,12.29,-1.090,0.036
130468,37.89,34.38,36.94,12.31,-1.045,0.036
130972,38.77,34.38,36.94,12.27,-1.001,0.036
131476,38.77,34.38,37.10,12.27,-0.986,0.051
131980,38.77,34.38,36.94,12.27,-0.971,0.051
132484,38.77,34.38,37.10,12.27,-1.031,0.036
132987,38.77,34.38,37.73,12.27,-1.045,0.021
133491,37.89,34.38,37.10,12.27,-1.060,0.036
133995,40.53,34.38,36.63,12.27,-1.075,0.021
134499,37.01,34.38,37.26,12.29,-1.060,0.065
135003,38.77,34.38,37.10,12.27,-0.912,0.051
135506,39.65,34.38,37.26,12.27,-1.001,0.065
136010,39.65,34.38,36.79,12.27,-1.001,0.051
136514,39.65,34.38,37.42,12.27,-1.016,-0.009
137018,40.53,35.26,37.10,12.26,-1.001,0.036
137522,41.41,34.38,37.26,12.26,-1.075,0.065
138025,35.26,34.38,37.42,12.26,-1.001,-0.083
138529,29.10,41.41,39.15,12.11,-1.312,0.332
139033,32.62,33.50,38.52,12.11,-1.031,-0.068
139537,44.93,33.50,38.21,12.18,-0.986,-0.157
140041,37.89,34.38,37.73,12.27,-1.312,-0.024
140545,37.89,34.38,36.79,12.29,-1.016,0.036
141048,37.89,34.38,37.26,12.29,-1.060,0.021
141552,37.01,34.38,36.79,12.27,-1.075,0.036
142056,39.65,34.38,37.26,12.29,-1.045,0.036
142560,41.41,34.38,36.94,12.26,-1.045,-0.009
143064,38.77,34.38,36.79,12.29,-1.016,0.080
143567,37.01,34.38,37.26,12.27,-1.001,-0.024
144071,38.77,34.38,37.57,12.29,-1.045,0.051
144575,39.65,34.38,39.31,12.26,-1.016,0.006
145079,40.53,35.26,38.21,12.26,-1.016,0.021
145583,37.01,35.26,37.42,12.29,-1.016,0.036
146086,38.77,35.26,37.42,12.29,-1.060,0.021
146590,37.89,35.26,37.57,12.27,-1.031,0.036
147094,40.53,35.26,37.26,12.27,-1.031,0.051
147598,40.53,35.26,37.42,12.27,-1.031,0.021
148102,39.65,35.26,37.10,12.26,-1.016,0.036
148605,40.53,35.26,38.05,12.29,-1.031,0.006
149109,40.53,35.26,38.05,12.31,-1.016,-0.024
149613,38.77,35.26,37.57,12.29,-0.986,0.021
150117,39.65,35.26,37.57,12.26,-1.016,-0.009
150621,38.77,35.26,37.73,12.27,-1.060,0.021
151124,38.77,34.38,37.26,12.29,-1.001,0.006
151628,38.77,35.26,37.42,12.27,-1.016,-0.053
152132,37.89,35.26,37.73,12.31,-1.090,0.051
152636,38.77,34.38,37.26,12.31,-1.031,0.051
153140,40.53,35.26,38.05,12.27,-1.016,0.021
153644,37.89,35.26,37.73,12.31,-1.045,0.006
154147,38.77,34.38,37.89,12.29,-1.016,0.021
154651,37.89,35.26,37.42,12.27,-1.016,0.021
155155,41.41,35.26,37.57,12.26,-1.016,0.051
155659,38.77,34.38,37.73,12.31,-1.060,-0.024
156163,39.65,34.38,36.16,12.29,-1.045,-0.053
156666,40.53,35.26,37.89,12.26,-1.060,-0.009
157170,39.65,34.38,38.36,12.27,-1.060,-0.024
157674,40.53,33.50,39.15,12.22,-1.016,-0.024
158178,42.29,33.50,38.52,12.16,-0.764,-0.275
158682,39.65,34.38,38.36,12.29,-0.734,0.095
159185,38.77,34.38,37.42,12.31,-1.253,-0.083
159689,41.41,34.38,38.05,12.27,-1.075,0.095
160193,40.53,34.38,37.89,12.29,-0.986,0.080
160697,39.65,34.38,37.26,12.26,-0.957,-0.186
161201,39.65,34.38,37.42,12.26,-1.016,0.051
161704,37.01,34.38,37.57,12.27,-1.105,0.051
162208,40.53,33.50,36.00,12.40,-1.194,0.139
162712,39.65,34.38,38.05,12.27,-1.075,0.095
163216,41.41,34.38,37.10,12.26,-1.016,0.095
163720,40.53,34.38,37.42,12.29,-1.045,0.051
164224,41.41,34.38,37.57,12.26,-1.045,0.080
164727,39.65,34.38,37.73,12.26,-1.090,0.169
165231,38.77,33.50,37.42,12.27,-1.075,0.065
165735,40.53,34.38,37.42,12.27,-1.060,0.051
166239,39.65,34.38,37.73,12.26,-1.090,0.095
166743,41.41,34.38,38.21,12.27,-1.105,-0.112
167246,40.53,34.38,37.89,12.29,-1.090,-0.009
167750,39.65,34.38,37.89,12.27,-1.105,-0.068
168254,37.89,34.38,37.73,12.29,-1.120,-0.083
168758,38.77,33.50,37.57,12.26,-1.075,-0.024
169262,41.41,33.50,38.36,12.27,-1.090,-0.098
169765,40.53,34.38,37.42,12.27,-1.090,-0.053
170269,40.53,33.50,37.73,12.29,-1.060,-0.024
170773,38.77,33.50,38.05,12.29,-1.120,-0.083
171277,41.41,33.50,38.05,12.27,-1.134,-0.127
171781,37.89,34.38,37.89,12.31,-1.105,-0.083
172284,38.77,33.50,38.21,12.29,-1.120,-0.098
172788,37.01,33.50,37.89,12.31,-1.194,-0.024
173292,40.53,37.89,40.73,12.42,-1.238,-0.201
173796,22.94,35.26,40.73,11.96,-1.134,-0.379
174300,47.57,28.22,40.89,12.27,-1.208,-0.335
174803,38.77,33.50,37.57,12.27,-1.031,-0.261
175307,38.77,33.50,38.05,12.27,-1.105,-0.157
175811,39.65,33.50,38.21,12.29,-1.120,-0.083
176315,38.77,33.50,38.05,12.27,-1.134,-0.053
176819,40.53,34.38,37.10,12.29,-1.031,-0.083
177323,41.41,33.50,38.21,12.26,-1.075,-0.172
177826,39.65,33.50,38.05,12.29,-1.105,-0.186
178330,37.89,33.50,37.89,12.26,-1.045,-0.083
178834,39.65,33.50,38.36,12.26,-1.090,-0.083
179338,32.62,33.50,38.99,12.33,-1.149,-0.157
179842,38.77,33.50,37.73,12.27,-1.045,-0.083
180345,41.41,33.50,38.36,12.29,-1.090,-0.068
180849,40.53,33.50,37.73,12.27,-1.060,-0.053
181353,41.41,33.50,37.73,12.26,-1.090,-0.068
181857,38.77,33.50,38.52,12.31,-1.149,-0.112
182361,42.29,33.50,38.52,12.27,-1.075,-0.068
182864,40.53,33.50,38.52,12.27,-1.031,-0.068
183368,37.89,33.50,38.36,12.27,-1.090,0.006
183872,40.53,33.50,38.21,12.27,-1.060,0.006
184376,40.53,33.50,38.68,12.27,-1.164,-0.053
184880,32.62,33.50,39.78,12.46,-1.045,-0.157
185383,38.77,33.50,37.26,12.27,-1.060,-0.127
185887,39.65,33.50,38.68,12.29,-1.120,-0.098
186391,41.41,33.50,38.36,12.27,-1.075,-0.127
186895,38.77,33.50,36.63,12.27,-1.120,-0.083
187399,38.77,33.50,38.05,12.29,-1.105,-0.083
187902,41.41,33.50,37.89,12.27,-1.105,-0.068
188406,32.62,33.50,40.10,12.37,-1.164,-0.172
188910,51.97,29.10,37.42,12.22,-0.764,-0.261
189414,26.46,20.30,37.42,11.98,-1.238,-0.083
189918,32.62,25.58,36.63,11.85,-1.164,0.273
190422,49.33,33.50,37.73,12.37,-1.194,0.021
190925,39.65,33.50,41.20,12.27,-0.883,-0.038
191429,41.41,33.50,38.36,12.27,-1.134,-0.098
191933,38.77,33.50,38.36,12.31,-1.105,-0.083
192437,42.29,33.50,38.36,12.27,-1.075,-0.142
192941,41.41,33.50,37.89,12.26,-1.105,-0.112
193444,39.65,33.50,37.89,12.26,-1.105,-0.112
193948,40.53,33.50,37.89,12.27,-1.060,-0.112
194452,40.53,33.50,38.52,12.31,-1.105,-0.142
194956,39.65,33.50,37.89,12.29,-1.090,-0.127
195460,40.53,34.38,38.21,12.26,-1.075,-0.127
195963,40.53,34.38,38.36,12.27,-1.016,-0.335
196467,39.65,34.38,38.05,12.29,-1.120,-0.083
196971,39.65,34.38,38.21,12.29,-1.134,-0.112
197475,39.65,34.38,38.84,12.27,-1.045,-0.083
197979,39.65,34.38,38.05,12.27,-1.075,-0.083
198482,42.29,34.38,38.52,12.26,-1.090,-0.068
198986,40.53,34.38,38.05,12.27,-1.090,-0.172
199490,40.53,34.38,38.21,12.26,-1.075,-0.083
199994,39.65,34.38,38.52,12.26,-1.075,-0.098
200498,42.29,34.38,37.73,12.27,-1.090,-0.127
201001,39.65,34.38,38.68,12.29,-1.045,-0.112
201505,40.53,34.38,37.89,12.26,-1.075,-0.157
202009,40.53,34.38,38.52,12.27,-1.090,-0.112
202513,42.29,34.38,38.68,12.29,-1.149,-0.053
203017,42.29,34.38,38.68,12.27,-1.134,-0.127
203521,41.41,33.50,38.84,12.29,-1.105,-0.024
204024,39.65,34.38,38.99,12.29,-1.075,-0.142
204528,40.53,33.50,38.52,12.27,-1.134,-0.083
205032,42.29,33.50,38.99,12.27,-1.090,-0.098
205536,42.29,33.50,38.84,12.29,-1.120,-0.068
206040,40.53,34.38,38.52,12.26,-1.134,-0.024
206543,41.41,33.50,38.99,12.26,-1.060,-0.068
207047,39.65,33.50,38.52,12.27,-1.090,-0.098
207551,39.65,32.62,41.83,12.16,-1.105,-0.157
208055,49.33,31.74,38.68,12.31,-1.327,-0.246
208559,37.01,34.38,39.62,12.53,-1.282,-0.364
209062,48.45,47.57,40.41,12.04,-1.075,-0.364
209566,37.89,31.74,44.51,12.35,-1.460,-0.127
210070,40.53,33.50,38.99,12.27,-0.927,0.154
210574,40.53,33.50,38.84,12.27,-1.060,-0.216
211078,39.65,33.50,39.15,12.29,-0.957,-0.186
211581,39.65,33.50,39.31,12.26,-1.001,-0.083
212085,41.41,32.62,39.47,12.29,-0.957,-0.675
212589,39.65,33.50,39.31,12.29,-0.038,-0.764
213093,46.69,29.10,40.25,12.44,-0.157,0.687
213597,41.41,31.74,39.62,12.26,0.791,-1.179
214100,40.53,31.74,40.25,12.27,-0.527,-1.445
214604,41.41,32.62,39.47,12.24,-0.335,-1.845
215108,41.41,31.74,39.78,12.24,0.569,-1.534
215612,39.65,32.62,39.62,12.27,0.495,-0.527
216116,39.65,31.74,39.78,12.24,0.658,-0.971
216620,40.53,32.62,39.47,12.26,0.125,-0.868
217123,41.41,32.62,39.94,12.26,0.287,-0.971
217627,40.53,32.62,39.31,12.22,-0.423,-1.357
218131,42.29,32.62,39.94,12.22,0.021,-0.542
218635,46.69,29.10,40.10,12.40,0.036,-1.164
219139,42.29,32.62,40.10,12.27,0.613,-1.253
219642,41.41,32.62,40.10,12.20,0.613,-1.431
220146,41.41,32.62,40.10,12.20,-0.053,-1.431
220650,42.29,32.62,39.62,12.24,-0.127,-1.342
221154,41.41,32.62,40.10,12.22,-0.409,-1.238
221658,41.41,32.62,40.57,12.20,-0.320,-1.060
222161,42.29,32.62,39.94,12.20,-0.068,-0.883
222665,39.65,33.50,40.25,12.20,0.095,-0.764
223169,41.41,33.50,40.89,12.18,0.065,-0.809
223673,41.41,33.50,40.73,12.18,0.021,-0.868
224177,42.29,33.50,40.57,12.37,0.495,-0.320
224680,41.41,33.50,40.73,12.18,0.169,-0.897
225184,42.29,33.50,41.52,12.18,-0.038,-0.986
225688,41.41,33.50,41.04,12.18,0.051,-0.957
226192,42.29,33.50,41.04,12.18,0.154,-0.853
226696,45.81,34.38,42.78,12.37,0.228,-0.957
227200,30.86,35.26,46.88,12.31,0.228,-0.690
227703,57.25,32.62,47.35,11.94,-0.216,-1.164
228207,54.61,32.62,43.41,11.65,-0.098,-1.016
228711,37.89,32.62,40.10,12.42,0.228,-0.557
229215,40.53,34.38,41.83,12.13,0.317,-0.897
229719,42.29,34.38,41.83,12.15,0.169,-0.912
230222,36.13,33.50,42.78,12.26,0.406,-0.986
230726,41.41,34.38,42.62,12.15,-0.024,-0.897
231230,40.53,35.26,42.15,12.16,-0.275,-0.897
231734,41.41,35.26,42.46,12.15,0.036,-0.868
232238,42.29,35.26,42.62,12.09,0.154,-0.868
232741,42.29,35.26,42.94,12.11,-0.038,-0.942
233245,41.41,35.26,42.62,12.13,0.065,-0.897
233749,41.41,35.26,43.25,12.11,0.051,-0.853
234253,41.41,36.13,43.25,12.11,-0.083,-0.912
234757,41.41,36.13,43.57,12.05,-0.009,-0.897
235260,41.41,36.13,43.25,12.07,0.021,-0.897
235764,41.41,37.01,43.09,12.09,0.125,-0.883
236268,40.53,37.01,43.57,12.05,0.110,-0.838
236772,41.41,37.01,43.72,12.05,-0.053,-0.927
237276,42.29,37.01,43.72,12.07,0.006,-0.838
237779,41.41,37.01,43.88,12.07,0.080,-0.823
238283,39.65,37.01,44.20,11.85,0.317,-0.971
238787,49.33,41.41,45.77,11.89,0.080,-1.016
239291,31.74,32.62,44.20,11.94,-0.009,-1.031
239795,43.17,18.54,48.61,11.60,-0.098,-0.675
240299,42.29,37.89,41.83,12.24,0.391,-1.238
240802,40.53,37.89,44.20,12.05,0.006,-0.942
241306,25.58,35.26,43.72,12.05,0.199,-0.853
241810,41.41,37.89,44.04,12.04,-0.024,-0.912
242314,42.29,37.89,44.83,12.05,-0.009,-0.897
242818,42.29,38.77,44.20,12.04,0.006,-0.942
243321,40.53,38.77,44.20,12.02,-0.009,-0.883
243825,40.53,38.77,44.51,12.00,0.006,-0.823
244329,41.41,38.77,44.83,11.98,-0.053,-0.897
244833,41.41,38.77,44.98,12.00,0.051,-0.912
245337,42.29,38.77,44.67,11.98,0.080,-0.868
245840,40.53,39.65,44.83,11.98,0.095,-0.883
246344,40.53,39.65,44.83,11.98,0.051,-0.897
246848,40.53,39.65,44.98,12.00,-0.038,-0.897
247352,41.41,39.65,45.62,11.98,-0.038,-0.927
247856,42.29,39.65,44.98,11.98,-0.038,-0.897
248358,42.29,39.65,45.62,11.98,-0.053,-0.912
248862,42.29,39.65,45.77,11.96,-0.009,-0.927
249366,42.29,39.65,45.30,11.96,-0.083,-0.838
249870,41.41,40.53,45.46,11.94,0.065,-0.883
250374,42.29,39.65,45.14,11.94,0.080,-0.897
250877,41.41,40.53,41.67,11.96,0.051,-0.897
251381,41.41,40.53,45.62,11.94,0.036,-0.912
251885,42.29,40.53,45.77,11.94,0.036,-0.868
252389,42.29,40.53,45.93,11.93,0.110,-0.868
252893,42.29,40.53,45.46,11.94,0.021,-0.897
253396,41.41,41.41,45.77,11.93,0.080,-0.868
253900,41.41,41.41,45.77,11.93,0.021,-0.868
254404,40.53,41.41,45.46,11.91,0.036,-0.853
254908,41.41,41.41,45.46,11.89,-0.053,-0.897
255412,42.29,41.41,45.46,11.89,-0.009,-0.912
255916,40.53,41.41,45.93,11.89,-0.024,-0.883
256419,41.41,41.41,45.93,11.91,0.036,-0.883
256923,39.65,41.41,44.51,11.96,0.080,-0.971
257427,49.33,44.93,48.93,11.89,0.213,-0.749
257931,23.82,50.21,47.66,11.83,0.006,-0.749
258435,49.33,40.53,49.87,11.83,-0.127,-1.223
258938,48.45,38.77,44.98,11.96,0.021,-0.809
259442,41.41,42.29,44.83,11.93,0.228,-0.809
259946,41.41,42.29,45.46,11.85,0.006,-0.912
260450,42.29,41.41,45.14,11.83,-0.009,-0.897
260954,41.41,42.29,45.77,11.83,0.051,-0.912
261457,41.41,42.29,45.93,11.83,-0.009,-0.897
261961,41.41,42.29,45.93,11.82,0.051,-0.883
262465,41.41,42.29,46.09,11.83,-0.009,-0.897
262969,41.41,42.29,45.30,11.83,0.065,-0.868
263473,42.29,42.29,45.46,11.82,0.065,-0.853
263976,40.53,42.29,45.77,11.82,-0.098,-0.971
264480,44.05,42.29,45.77,11.80,0.051,-0.897
264984,41.41,42.29,45.62,11.78,0.021,-0.897
265488,41.41,42.29,45.77,11.80,0.095,-0.823
265992,42.29,42.29,45.93,11.82,0.036,-0.868
266496,42.29,42.29,45.93,11.80,0.051,-0.897
266999,41.41,42.29,46.25,11.78,0.051,-0.868
267503,42.29,42.29,45.62,11.78,0.036,-0.912
268007,40.53,42.29,45.93,11.78,-0.009,-0.897
268511,42.29,43.17,46.40,11.76,0.021,-0.897
269015,42.29,42.29,45.77,11.76,0.021,-0.927
269518,41.41,42.29,46.40,11.76,0.051,-0.823
270022,42.29,43.17,45.62,11.74,0.036,-0.897
270526,42.29,43.17,46.25,11.76,0.051,-0.883
271030,41.41,42.29,46.09,11.74,0.006,-0.897
271534,41.41,42.29,46.40,11.74,0.036,-0.897
272037,41.41,42.29,46.09,11.74,0.006,-0.868
272541,42.29,42.29,46.25,11.74,0.036,-0.883
273045,40.53,43.17,46.56,11.74,0.065,-0.897
273549,42.29,42.29,46.56,11.72,0.080,-0.883
274053,41.41,42.29,45.93,11.72,0.095,-0.883
274556,42.29,42.29,46.56,11.71,-0.009,-0.897
275060,40.53,42.29,48.93,11.71,0.021,-0.883
275564,42.29,42.29,46.25,11.71,-0.009,-0.868
276068,47.57,43.17,47.66,11.72,-0.053,-0.971
276572,49.33,42.29,49.24,11.72,-0.098,-0.512
277075,31.74,32.62,49.24,11.78,-0.009,-0.631
277579,50.21,32.62,47.98,11.25,-0.053,-1.075
278083,39.65,44.93,46.72,11.67,0.258,-0.734
278587,42.29,42.29,46.72,11.58,0.302,-0.838
279091,42.29,42.29,46.72,11.67,0.036,-0.868
279593,41.41,43.17,46.40,11.67,0.080,-0.912
280097,41.41,42.29,45.93,11.65,0.036,-0.883
280601,42.29,42.29,46.72,11.65,-0.009,-0.868
281105,45.81,44.93,50.50,11.61,-0.024,-0.868
281609,43.17,43.17,46.88,11.63,-0.009,-0.883
282113,41.41,43.17,46.40,11.65,-0.009,-0.883
282616,44.05,42.29,45.93,11.65,0.080,-0.883
283120,42.29,42.29,47.35,11.63,0.065,-0.883
283624,42.29,42.29,47.51,11.61,0.036,-0.868
284128,44.05,42.29,47.03,11.63,0.006,-0.883
284632,41.41,42.29,46.72,11.63,-0.024,-0.883
285135,41.41,42.29,47.03,11.61,0.065,-0.897
285639,42.29,42.29,47.51,11.63,0.095,-0.853
286143,41.41,42.29,46.88,11.60,-0.009,-0.897
286647,42.29,42.29,47.03,11.60,0.051,-0.868
287151,41.41,42.29,47.03,11.58,0.021,-0.868
287654,44.05,42.29,46.88,11.60,0.006,-0.883
288158,42.29,42.29,46.72,11.61,-0.009,-0.912
288662,44.05,42.29,47.03,11.60,0.021,-0.912
289166,41.41,42.29,46.40,11.60,0.036,-0.853
289670,44.05,42.29,46.72,11.60,0.021,-0.897
290173,44.05,42.29,47.03,11.58,-0.024,-0.883
290677,42.29,42.29,47.19,11.58,0.021,-0.868
291181,38.77,42.29,47.66,11.50,-0.009,-0.986
291685,37.89,44.93,49.08,11.71,0.006,-0.690
292189,41.41,42.29,46.56,11.52,0.036,-0.883
292692,44.93,42.29,47.98,11.49,-0.127,-0.957
293196,42.29,42.29,46.88,11.52,0.021,-0.883
293700,44.05,42.29,47.51,11.54,0.036,-0.897
294204,41.41,42.29,47.19,11.52,0.006,-0.897
294708,44.05,42.29,46.56,11.52,0.006,-0.912
295212,42.29,41.41,46.56,11.54,0.006,-0.868
295715,42.29,42.29,46.88,11.50,0.036,-0.868
296219,42.29,41.41,47.19,11.50,0.051,-0.868
296723,43.17,42.29,47.03,11.50,0.051,-0.912
297227,41.41,42.29,46.72,11.49,0.065,-0.897
297731,42.29,42.29,46.72,11.49,0.036,-0.853
298234,59.01,44.93,49.08,11.60,0.006,-0.794
298738,44.05,42.29,47.19,11.49,0.065,-0.883
299242,43.17,42.29,47.19,11.47,0.006,-0.838
299746,42.29,41.41,47.51,11.47,-0.009,-0.912
300250,40.53,41.41,46.40,11.47,0.051,-0.868
300753,44.05,41.41,46.88,11.45,0.125,-0.883
301257,43.17,41.41,47.35,11.49,0.095,-0.897
301761,41.41,41.41,47.35,11.47,-0.009,-0.883
302265,42.29,41.41,47.03,11.47,-0.038,-0.897
302768,41.41,41.41,46.72,11.45,0.021,-0.897
303271,41.41,41.41,47.03,11.47,-0.053,-0.897
303775,41.41,41.41,46.72,11.45,-0.009,-0.897
304279,43.17,41.41,47.98,11.43,0.036,-0.883
304783,42.29,41.41,47.03,11.43,0.021,-0.883
305287,42.29,41.41,47.35,11.43,0.006,-0.868
305790,43.17,41.41,47.51,11.43,-0.009,-0.883
306294,36.13,41.41,51.61,11.49,0.021,-0.971
306798,25.58,39.65,46.72,11.43,0.021,-0.883
307302,30.86,54.61,51.76,11.27,0.080,-0.779
307806,42.29,40.53,48.45,11.47,0.199,-0.631
308310,44.05,41.41,45.77,11.47,-0.038,-1.223
308813,42.29,41.41,46.56,11.39,0.273,-1.001
309317,42.29,41.41,47.82,11.39,0.006,-0.883
309821,43.17,40.53,45.77,11.47,0.065,-0.971
310325,43.17,41.41,46.72,11.39,0.095,-0.838
310829,43.17,41.41,46.40,11.39,0.021,-0.868
311332,43.17,41.41,49.87,11.38,0.036,-0.897
311836,41.41,41.41,47.03,11.38,0.095,-0.883
312340,41.41,41.41,47.03,11.38,0.065,-0.883
312844,43.17,41.41,47.03,11.36,0.095,-0.883
313348,42.29,40.53,46.40,11.36,-0.038,-0.897
313851,41.41,40.53,46.56,11.36,-0.009,-0.868
314355,41.41,40.53,47.03,11.34,-0.024,-0.868
314859,42.29,40.53,46.56,11.34,0.006,-0.897
315363,46.69,39.65,47.66,11.32,-0.053,-0.853
315867,44.05,40.53,47.19,11.34,-0.024,-0.912
316370,42.29,40.53,46.56,11.32,-0.038,-0.868
316874,41.41,40.53,46.25,11.34,0.006,-0.883
317378,42.29,40.53,46.56,11.30,0.006,-0.927
317882,43.17,40.53,46.25,11.32,-0.024,-0.912
318386,43.17,40.53,46.72,11.32,0.021,-0.883
318889,43.17,40.53,44.83,11.32,0.095,-0.897
319393,43.17,40.53,46.09,11.30,0.065,-0.897
319897,42.29,40.53,46.25,11.30,0.095,-0.912
320401,41.41,40.53,46.56,11.28,0.139,-0.883
320905,41.41,40.53,46.72,11.28,0.021,-0.853
321409,42.29,40.53,47.19,11.28,0.006,-0.883
321912,42.29,40.53,47.35,11.28,0.006,-0.897
322416,43.17,40.53,46.09,11.28,0.036,-0.883
322920,41.41,40.53,46.40,11.28,0.051,-0.912
323424,41.41,40.53,46.72,11.27,0.051,-0.897
323928,41.41,40.53,46.25,11.25,0.065,-0.868
324431,44.05,40.53,47.03,11.27,-0.024,-0.868
324935,43.17,40.53,45.77,11.27,-0.038,-0.897
325439,40.53,40.53,44.20,11.27,0.110,-0.986
325943,39.65,32.62,47.82,11.16,0.243,-0.705
326447,32.62,39.65,46.09,10.97,0.036,-0.794
326950,44.93,40.53,48.61,11.34,0.139,-1.357
327454,42.29,40.53,45.93,11.27,-0.024,-1.075
327958,42.29,39.65,47.35,11.23,-0.053,-0.675
328462,44.05,39.65,46.25,11.25,-0.009,-0.883
328966,42.29,39.65,46.56,11.19,0.065,-0.897
329469,44.05,39.65,46.72,11.23,0.065,-0.883
329973,41.41,39.65,46.56,11.23,0.139,-0.883
330477,42.29,40.53,45.93,11.21,-0.038,-0.897
330981,42.29,39.65,46.72,11.21,0.065,-0.883
331485,43.17,39.65,46.09,11.21,0.110,-0.868
331988,43.17,39.65,46.56,11.19,0.065,-0.897
332492,39.65,38.77,45.93,11.32,-0.053,-0.986
332996,44.05,39.65,45.62,11.19,0.036,-0.897
333500,43.17,39.65,46.09,11.17,0.021,-0.868
334004,42.29,39.65,45.77,11.17,-0.024,-0.883
334508,42.29,39.65,46.09,11.17,0.080,-0.897
335011,42.29,39.65,45.93,11.17,0.110,-0.883
335515,42.29,39.65,45.93,11.17,-0.009,-0.897
336018,44.05,39.65,45.77,11.17,0.021,-0.897
336522,43.17,39.65,45.93,11.17,0.006,-0.897
337026,42.29,39.65,45.46,11.16,-0.009,-0.853
337529,43.17,39.65,45.62,11.17,0.021,-0.868
338033,42.29,39.65,46.09,11.16,-0.172,-0.779
338537,43.17,39.65,45.30,11.16,0.065,-0.883
339041,42.29,38.77,45.46,11.16,0.021,-0.883
339545,43.17,39.65,45.46,11.14,0.036,-0.897
340048,42.29,39.65,45.30,11.14,0.125,-0.897
340552,42.29,39.65,46.56,11.12,0.125,-0.883
341056,43.17,39.65,45.62,11.12,-0.024,-0.868
341560,42.29,39.65,45.46,11.12,-0.024,-0.897
342064,42.29,39.65,44.98,11.10,-0.009,-1.031
342567,39.65,27.34,48.61,11.10,0.051,-0.734
343071,34.38,26.46,42.78,10.84,-0.112,-0.942
343575,44.93,37.89,42.62,11.16,-0.112,-0.527
344079,25.58,38.77,50.03,11.03,-0.335,-0.868
344583,43.17,39.65,45.30,11.10,-0.098,-0.912
345086,41.41,39.65,45.30,11.10,-0.009,-0.868
345590,43.17,39.65,45.62,11.08,-0.009,-0.883
346094,43.17,39.65,45.93,11.08,0.065,-0.868
346598,42.29,38.77,45.93,11.08,0.110,-0.868
347102,43.17,39.65,44.51,11.08,0.051,-0.897
347606,44.05,38.77,45.46,11.08,0.065,-0.883
348109,42.29,38.77,45.30,11.08,0.036,-0.912
348613,42.29,38.77,44.51,11.08,0.051,-0.868
349117,44.05,39.65,44.51,11.06,0.021,-0.868
349621,55.49,39.65,48.14,11.16,0.080,-0.912
350125,43.17,38.77,40.25,11.06,0.065,-0.868
350628,43.17,39.65,44.98,11.03,0.036,-0.897
351132,43.17,38.77,44.83,11.05,0.095,-0.897
351636,43.17,39.65,44.83,11.05,-0.009,-0.897
352140,43.17,39.65,44.35,11.05,0.006,-0.868
352644,43.17,38.77,44.98,11.05,-0.083,-0.927
353147,44.05,38.77,44.35,11.03,-0.009,-0.897
353651,44.05,39.65,44.83,11.05,0.051,-0.897
354155,44.05,38.77,44.20,11.03,0.051,-0.883
354659,42.29,38.77,44.51,11.01,0.080,-0.897
355163,39.65,39.65,44.83,11.01,-0.038,-0.823
355666,44.05,39.65,45.46,11.01,-0.024,-0.897
356170,39.65,38.77,44.35,10.99,-0.024,-0.971
356674,54.61,41.41,45.14,10.90,0.021,-1.045
357178,39.65,33.50,48.14,10.95,0.051,-1.120
357682,39.65,33.50,47.51,11.06,0.006,-1.045
358185,44.05,37.89,42.94,10.88,0.213,-0.557
358689,44.05,39.65,45.14,10.90,-0.157,-1.016
359193,42.29,38.77,43.88,10.97,-0.009,-0.883
359697,44.05,38.77,43.88,10.99,-0.009,-0.927
360201,44.05,38.77,44.35,10.97,0.006,-0.883
360705,42.29,39.65,44.51,10.97,-0.038,-0.897
361208,41.41,40.53,45.77,11.01,-0.038,-0.957
361712,42.29,38.77,44.04,10.95,0.051,-0.883
362216,44.05,38.77,42.62,10.97,0.065,-0.868
362720,43.17,39.65,43.25,10.95,0.080,-0.897
363224,42.29,38.77,43.57,10.95,0.080,-0.897
363727,43.17,38.77,43.72,10.95,0.065,-0.883
364231,43.17,39.65,44.35,10.95,0.080,-0.883
364734,43.17,38.77,44.20,10.94,-0.024,-0.897
365238,43.17,38.77,44.20,10.95,0.021,-0.883
365742,44.05,39.65,42.94,10.94,0.036,-0.897
366245,43.17,39.65,43.72,10.92,0.051,-0.883
366749,33.50,36.13,43.09,10.99,-0.038,-0.986
367253,43.17,39.65,42.78,10.92,0.036,-0.897
367757,44.05,39.65,43.25,10.92,0.021,-0.838
368261,42.29,39.65,43.57,10.92,-0.142,-0.897
368764,43.17,39.65,43.41,10.90,-0.009,-0.912
369268,44.05,38.77,43.41,10.90,0.139,-0.883
369772,44.05,39.65,43.72,10.90,0.036,-0.868
370276,44.05,39.65,43.25,10.90,0.051,-0.957
370780,43.17,39.65,43.25,10.88,0.125,-0.883
371283,43.17,39.65,42.30,10.88,0.036,-0.868
371787,42.29,39.65,42.78,10.88,0.065,-0.897
372291,37.89,38.77,42.78,10.83,-0.009,-1.016
372795,43.17,39.65,42.78,10.88,0.080,-0.868
373299,44.05,39.65,42.78,10.86,-0.024,-0.883
373803,43.17,39.65,43.09,10.88,0.051,-0.883
374306,42.29,38.77,42.78,10.86,-0.024,-0.912
374810,43.17,39.65,42.46,10.88,0.006,-0.883
375314,43.17,39.65,42.62,10.86,-0.009,-0.868
375818,43.17,39.65,41.99,10.84,0.036,-0.853
376322,46.69,39.65,42.62,10.83,0.125,-0.942
376825,35.26,32.62,43.72,10.72,0.199,-1.045
377329,39.65,32.62,44.20,10.77,-0.112,-1.357
377833,26.46,42.29,43.88,10.81,-0.157,-1.253
378337,35.26,40.53,40.25,10.81,-0.157,-0.942
378841,44.05,39.65,43.09,10.88,-0.290,-1.223
379344,43.17,39.65,41.99,10.83,-0.068,-1.164
379848,43.17,39.65,41.52,10.83,0.036,-0.853
380352,43.17,39.65,41.99,10.81,-0.038,-0.883
380856,42.29,39.65,41.52,10.83,0.051,-0.912
381360,42.29,38.77,41.99,10.83,0.095,-0.942
381863,43.17,39.65,41.20,10.81,-0.157,-0.942
382367,43.17,39.65,41.36,10.83,0.051,-0.868
382871,43.17,39.65,41.67,10.79,0.036,-0.912
383375,44.05,39.65,41.52,10.81,0.021,-0.868
383879,37.89,41.41,39.47,10.88,-0.024,-0.986
384382,43.17,39.65,35.68,10.77,0.051,-0.868
384886,44.05,39.65,41.52,10.79,0.065,-0.883
385390,43.17,39.65,41.52,10.79,0.021,-0.823
385894,43.17,39.65,41.67,10.79,0.125,-0.883
386398,43.17,39.65,41.04,10.79,0.095,-0.912
386902,44.05,39.65,40.73,10.77,-0.024,-0.883
387405,43.17,39.65,40.25,10.77,0.021,-0.853
387909,42.29,38.77,40.73,10.77,0.051,-0.868
388413,44.05,39.65,40.10,10.77,-0.009,-0.912
388917,43.17,39.65,40.57,10.73,-0.024,-0.868
389421,39.65,39.65,42.62,10.72,-0.038,-0.912
389924,43.17,39.65,40.25,10.75,-0.098,-0.868
390428,43.17,38.77,40.57,10.73,-0.024,-0.883
390932,42.29,39.65,40.41,10.73,0.184,-0.897
391436,44.05,39.65,40.41,10.73,0.021,-0.912
391940,43.17,39.65,39.78,10.73,0.080,-0.823
392443,43.17,38.77,40.25,10.70,0.021,-0.897
392947,44.05,38.77,39.94,10.73,0.080,-0.927
393451,44.05,38.77,40.41,10.72,-0.024,-0.883
393955,44.05,38.77,40.41,10.73,-0.083,-0.838
394459,43.17,39.65,39.78,10.70,-0.009,-0.897
394962,44.05,38.77,40.10,10.72,0.287,-0.838
395466,44.05,38.77,39.78,10.72,0.051,-0.868
395970,39.65,38.77,40.10,10.77,0.110,-0.868
396474,36.13,32.62,42.30,10.77,0.391,-1.460
396978,46.69,39.65,43.25,10.64,-0.142,-1.120
397481,44.93,38.77,40.10,10.75,0.125,-1.223
397985,44.05,38.77,39.94,10.70,-0.142,-0.616
398489,43.17,38.77,39.78,10.66,-0.068,-0.927
398993,44.93,38.77,39.94,10.70,0.110,-0.868
399497,43.17,38.77,39.78,10.70,0.169,-0.883
400001,43.17,38.77,39.47,10.70,0.258,-0.868
400503,44.05,38.77,40.10,10.68,0.139,-0.809
401007,43.17,38.77,39.94,10.66,-0.172,-0.912
401511,44.05,38.77,39.78,10.66,-0.098,-0.942
402015,43.17,38.77,39.94,10.66,0.125,-0.853
402519,44.93,38.77,39.62,10.68,0.036,-0.883
403022,44.93,38.77,39.47,10.68,-0.009,-0.883
403526,43.17,38.77,39.47,10.68,0.006,-0.868
404030,44.05,38.77,38.84,10.66,0.154,-0.883
404534,43.17,38.77,39.62,10.66,0.110,-0.927
405038,43.17,38.77,39.47,10.64,0.065,-0.942
405541,43.17,38.77,39.47,10.66,0.125,-0.883
406045,44.05,38.77,38.99,10.64,-0.068,-0.883
406549,42.29,38.77,39.62,10.64,-0.083,-0.853
407053,43.17,38.77,39.15,10.64,0.095,-0.868
407557,44.93,38.77,39.15,10.64,0.051,-0.883
408060,43.17,38.77,38.52,10.53,-0.275,-0.971
408564,34.38,39.65,44.67,10.57,-0.024,-0.957
409068,43.17,52.85,39.62,10.63,-0.098,-0.557
409572,43.17,41.41,43.09,10.61,0.139,-1.179
410076,42.29,37.89,40.25,10.55,0.199,-0.646
410579,44.93,38.77,38.68,10.61,-0.172,-1.090
411083,44.93,38.77,38.84,10.59,0.006,-0.853
411587,43.17,38.77,39.15,10.61,0.169,-0.897
412091,35.26,38.77,39.15,10.66,0.169,-0.942
412595,44.93,37.89,38.84,10.61,0.125,-0.868
413099,43.17,38.77,39.15,10.61,0.021,-0.927
413602,44.05,37.89,38.84,10.61,-0.038,-0.883
414106,44.05,37.89,38.84,10.59,-0.038,-0.912
414610,44.93,37.89,38.84,10.59,-0.024,-0.897
415114,44.05,38.77,38.84,10.59,0.154,-0.868
415618,44.05,37.89,38.36,10.59,0.065,-0.823
416121,44.05,37.89,39.47,10.59,0.036,-0.868
416625,44.05,37.89,38.68,10.59,0.006,-0.942
417129,43.17,37.89,38.36,10.57,0.110,-0.897
417633,40.53,38.77,39.47,10.57,-0.068,-0.927
418137,44.05,37.89,38.36,10.57,0.051,-0.897
418640,43.17,37.89,38.36,10.55,-0.172,-0.912
419144,44.05,37.89,38.36,10.57,0.006,-0.853
419648,44.05,37.89,38.36,10.55,0.021,-0.838
420152,44.93,37.89,38.52,10.55,0.169,-0.912
420656,44.05,37.89,38.36,10.55,0.065,-0.897
421159,44.05,37.89,38.52,10.55,0.228,-0.883
421663,43.17,37.89,38.84,10.53,-0.083,-0.883
422167,44.93,37.01,38.84,10.55,-0.038,-0.868
422671,44.93,37.89,38.52,10.52,0.036,-0.897
423175,44.93,37.01,38.21,10.53,-0.024,-0.897
423678,44.93,37.01,38.05,10.53,0.065,-0.853
424182,43.17,37.89,38.84,10.53,0.065,-0.927
424686,44.93,37.01,38.68,10.52,-0.053,-0.942
425190,43.17,37.89,38.21,10.50,0.065,-0.868
425694,44.05,37.89,38.05,10.52,0.021,-0.897
426198,47.57,37.01,38.05,10.52,-0.038,-0.927
426701,44.05,37.89,38.68,10.52,-0.024,-0.897
427205,47.57,37.89,36.31,10.42,-0.112,-0.853
427709,22.06,47.57,39.47,10.35,-0.053,-0.853
428213,45.81,26.46,40.25,10.42,0.347,-0.601
428717,44.93,32.62,37.26,10.41,0.213,-0.986
429220,59.01,37.89,36.47,10.35,-0.053,-1.238
429724,43.17,37.89,38.21,10.48,-0.127,-0.971
430228,44.05,37.89,41.52,10.48,-0.098,-0.912
430732,43.17,37.01,37.73,10.48,0.006,-0.897
431236,43.17,37.89,38.05,10.48,0.154,-0.883
431739,44.05,37.89,37.89,10.48,0.036,-0.853
432243,43.17,37.01,37.73,10.48,-0.068,-0.927
432747,44.05,37.89,37.73,10.46,0.021,-0.897
433251,44.05,37.01,37.89,10.46,0.006,-0.897
433755,43.17,37.01,37.10,10.44,0.036,-0.853
434258,44.05,37.89,38.36,10.46,0.095,-0.868
434761,35.26,35.26,38.21,10.44,0.154,-1.016
435265,44.93,37.01,37.57,10.44,0.006,-0.838
435769,44.93,37.01,37.73,10.44,0.021,-0.853
436273,44.93,37.01,38.52,10.46,-0.024,-0.912
436776,44.05,37.89,37.26,10.44,0.095,-0.971
437280,44.05,37.89,37.89,10.42,0.080,-0.883
437784,44.05,37.01,37.26,10.44,-0.068,-0.897
438288,44.93,37.01,37.57,10.42,-0.024,-0.912
438792,44.05,37.01,38.05,10.42,0.021,-0.823
439296,44.05,37.01,37.89,10.42,0.006,-0.838
439799,43.17,37.01,37.73,10.42,-0.009,-0.942
440303,44.93,37.01,37.73,10.41,-0.038,-0.853
440807,44.93,37.01,37.73,10.41,0.125,-0.794
441311,44.05,37.01,37.10,10.39,0.006,-0.957
441815,43.17,37.01,37.89,10.39,-0.157,-0.986
442318,43.17,36.13,38.05,10.41,0.243,-0.779
442822,44.05,37.01,37.89,10.39,0.080,-0.883
443326,44.93,37.01,36.79,10.39,0.154,-0.927
443830,43.17,37.01,37.42,10.39,-0.068,-0.853
444334,43.17,37.01,37.73,10.39,0.021,-0.897
444837,44.05,37.01,37.26,10.39,0.184,-0.838
445341,44.93,37.01,37.42,10.39,0.051,-0.838
445845,48.45,36.13,36.47,10.37,-0.009,-0.971
446349,41.41,36.13,37.89,10.44,0.184,-0.971
446853,25.58,40.53,37.26,10.19,-0.275,-0.646
447356,34.38,59.89,36.79,10.04,0.110,-1.120
447860,38.77,38.77,35.21,10.11,0.065,-0.468
448364,44.93,37.01,32.53,10.35,0.332,-0.468
448868,44.93,37.01,37.10,10.35,0.021,-0.646
449372,44.93,36.13,37.10,10.35,-0.112,-0.912
449875,43.17,36.13,37.26,10.37,-0.083,-0.897
450379,44.93,36.13,36.63,10.37,-0.068,-0.809
450883,44.05,36.13,37.42,10.35,0.051,-0.912
451387,43.17,36.13,37.42,10.35,0.199,-0.927
451891,35.26,37.89,37.26,10.35,0.080,-0.853
452395,43.17,36.13,37.26,10.35,0.169,-0.838
452898,44.05,36.13,37.57,10.33,0.065,-0.853
453402,43.17,36.13,36.16,10.33,0.080,-0.853
453906,45.81,36.13,37.26,10.31,0.139,-0.883
454410,44.93,36.13,37.57,10.31,0.080,-0.912
454914,42.29,36.13,37.26,10.28,0.125,-0.971
455417,44.93,36.13,36.31,10.31,0.051,-0.883
455921,44.93,36.13,36.94,10.31,-0.098,-0.853
456425,44.93,35.26,36.94,10.28,0.021,-0.912
456929,45.81,35.26,36.63,10.30,-0.142,-0.942
457433,44.93,37.01,36.94,10.41,-0.068,-0.853
457936,43.17,36.13,36.47,10.28,-0.024,-0.823
458440,44.93,35.26,36.63,10.28,0.065,-0.912
458944,44.05,35.26,36.79,10.28,0.154,-0.897
459448,43.17,35.26,36.47,10.26,0.169,-0.868
459952,43.17,36.13,36.63,10.24,0.139,-0.853
460455,44.05,35.26,36.63,10.26,0.006,-0.883
460959,44.05,35.26,36.94,10.28,-0.246,-0.897
461463,45.81,35.26,36.16,10.30,0.199,-0.883
461967,47.57,35.26,37.26,10.44,-0.068,-0.927
462471,44.05,37.89,38.68,10.17,0.302,-0.646
462974,42.29,41.41,38.05,10.08,0.228,-0.986
463478,62.53,37.89,35.84,10.11,-0.009,-0.897
463982,45.81,35.26,36.31,10.04,0.095,-1.357
464486,44.93,35.26,36.63,10.24,0.065,-0.957
464990,44.05,35.26,33.16,10.24,0.021,-0.942
465494,43.17,35.26,35.84,10.20,0.036,-0.868
465997,44.93,35.26,36.47,10.22,-0.068,-0.971
466501,44.05,35.26,36.31,10.22,0.199,-0.897
467005,45.81,35.26,36.63,10.24,0.184,-0.912
467509,44.93,35.26,36.79,10.24,0.095,-0.883
468013,44.93,35.26,36.31,10.20,0.095,-0.823
468516,45.81,35.26,36.47,10.24,0.213,-0.868
469020,56.37,37.89,37.10,10.24,0.154,-0.794
469524,44.93,35.26,36.31,10.19,0.095,-0.927
470028,44.05,35.26,36.31,10.20,-0.038,-0.897
470532,43.17,35.26,36.63,10.19,0.080,-0.853
471035,43.17,35.26,36.00,10.19,0.095,-0.868
471539,44.93,35.26,36.00,10.19,0.139,-0.838
472043,44.93,35.26,35.68,10.19,-0.142,-0.942
472547,45.81,35.26,36.16,10.19,-0.024,-0.986
473051,44.93,35.26,35.84,10.17,0.154,-0.794
473554,44.05,35.26,35.84,10.17,0.006,-0.897
474058,44.93,35.26,36.16,10.17,-0.024,-0.942
474562,25.58,37.89,35.52,10.15,0.376,-0.734
475066,44.93,35.26,35.37,10.17,0.051,-0.853
475570,44.93,35.26,35.84,10.15,0.095,-0.897
476073,47.57,34.38,35.84,10.15,0.095,-0.912
476577,44.05,35.26,36.00,10.15,0.051,-0.853
477081,51.09,35.26,36.00,10.15,0.051,-0.927
477585,55.49,30.86,36.16,10.11,0.465,-1.016
478089,42.29,39.65,37.57,9.89,0.036,-0.601
478593,46.69,26.46,34.58,9.97,-0.127,-1.016
479096,44.05,30.86,38.84,10.09,-0.394,-0.883
479600,45.81,34.38,34.89,10.22,-0.423,-1.016
480104,43.17,35.26,35.68,10.11,-0.038,-0.868
480608,59.01,33.50,35.68,10.19,-0.024,-1.045
481112,48.45,34.38,35.68,10.13,-0.098,-0.942
481615,46.69,34.38,35.52,10.09,-0.024,-0.883
482119,47.57,34.38,39.31,10.11,0.273,-0.868
482623,44.93,34.38,35.52,10.13,0.139,-0.957
483127,46.69,35.26,35.21,10.11,0.125,-0.883
483631,45.81,34.38,35.37,10.08,-0.038,-0.927
484134,45.81,34.38,35.05,10.11,-0.053,-0.971
484638,44.05,34.38,35.37,10.09,0.036,-0.942
485142,45.81,34.38,35.37,10.09,0.199,-0.809
485646,45.81,34.38,35.21,10.11,0.021,-0.883
486150,35.26,31.74,33.16,10.15,0.213,-1.105
486653,43.17,34.38,35.84,10.06,-0.172,-0.942
487157,47.57,34.38,35.52,10.04,0.036,-0.897
487661,45.81,34.38,35.37,10.04,0.065,-0.927
488165,46.69,34.38,35.37,10.06,-0.038,-0.927
488669,45.81,33.50,35.52,10.06,-0.068,-0.897
489172,47.57,33.50,34.74,10.06,-0.024,-0.853
489676,44.93,33.50,35.37,10.08,0.139,-0.897
490180,45.81,33.50,35.21,10.04,0.036,-0.868
490684,44.05,33.50,35.05,10.06,-0.098,-0.809
491188,45.81,33.50,34.74,10.06,-0.083,-0.957
491692,44.93,36.13,35.37,9.98,0.095,-0.971
492195,44.93,33.50,34.74,10.04,0.332,-0.823
492699,44.93,33.50,35.21,10.04,0.139,-0.957
493203,44.93,33.50,35.21,10.04,-0.068,-0.942
493707,44.93,33.50,35.21,10.02,0.036,-0.897
494211,45.81,33.50,34.89,10.04,0.006,-0.971
494714,47.57,33.50,35.05,10.02,0.036,-0.868
495218,45.81,33.50,34.74,10.02,0.110,-0.853
495722,44.93,33.50,34.42,10.02,0.021,-0.912
496226,47.57,33.50,34.11,9.97,0.258,-0.986
496730,35.26,30.86,38.36,9.91,-0.083,-0.720
497232,53.73,25.58,37.10,9.93,-0.083,-1.268
497736,16.78,26.46,36.00,9.86,0.021,-0.809
498240,44.93,30.86,37.10,9.78,0.139,-0.868
498744,48.45,32.62,35.37,9.97,-0.275,-0.734
499248,48.45,32.62,34.42,10.02,-0.038,-0.912
499751,45.81,33.50,34.42,9.98,0.036,-0.883
500255,43.17,33.50,34.58,10.02,0.036,-0.897
500759,45.81,33.50,34.89,9.98,-0.053,-0.912
501263,44.93,33.50,35.05,9.97,-0.009,-0.868
501767,44.93,33.50,33.95,9.97,-0.068,-0.912
502270,44.93,32.62,34.89,9.97,0.065,-0.942
502774,44.05,32.62,34.58,9.97,0.139,-0.927
503278,46.69,33.50,38.21,9.89,0.065,-0.986
503782,45.81,32.62,35.37,9.93,-0.068,-0.883
504286,45.81,32.62,35.05,9.95,0.036,-0.853
504790,45.81,32.62,35.05,9.93,0.065,-0.853
505293,47.57,32.62,34.11,9.91,0.154,-0.897
505797,44.05,32.62,33.95,9.93,0.154,-0.883
506301,44.93,33.50,34.42,9.95,0.021,-0.912
506805,46.69,32.62,34.58,9.93,0.051,-0.912
507309,43.17,32.62,34.89,9.91,0.095,-0.883
507811,45.81,32.62,34.26,9.93,0.125,-0.897
508315,44.93,32.62,33.95,9.89,-0.038,-0.927
508819,43.17,32.62,33.95,9.91,-0.053,-0.927
509323,47.57,32.62,34.58,9.91,0.006,-0.927
509827,46.69,32.62,34.11,9.89,-0.053,-0.912
510330,44.05,32.62,34.58,9.89,0.006,-0.883
510834,45.81,32.62,34.26,9.89,-0.009,-0.912
511338,47.57,32.62,34.11,9.89,0.036,-0.897
511842,47.57,32.62,34.11,9.84,0.051,-0.868
512346,44.05,32.62,35.21,9.97,0.125,-0.794
512849,25.58,51.09,34.74,9.65,-0.038,-0.986
513353,43.17,35.26,34.58,9.86,-0.142,-0.897
513857,45.81,31.74,33.63,9.91,0.006,-0.986
514361,46.69,32.62,33.63,9.82,0.406,-1.223
514865,39.65,34.38,34.42,9.87,-0.186,-0.734
515368,45.81,31.74,33.79,9.86,0.065,-0.853
515872,47.57,31.74,34.11,9.82,-0.009,-0.883
516376,46.69,31.74,34.42,9.82,-0.009,-0.853
516880,47.57,31.74,34.42,9.82,0.021,-0.897
517384,44.93,31.74,33.79,9.82,0.021,-0.868
517888,45.81,31.74,33.63,9.84,0.006,-0.912
518391,47.57,31.74,33.79,9.82,-0.098,-0.912
518894,45.81,31.74,33.63,9.84,-0.068,-0.868
519398,43.17,31.74,33.79,9.78,-0.009,-0.883
519902,47.57,31.74,33.48,9.80,0.080,-0.868
520406,47.57,31.74,34.11,9.80,0.139,-0.912
520909,45.81,31.74,33.48,9.78,0.036,-0.927
521413,45.81,31.74,34.11,9.80,0.021,-0.897
521917,45.81,31.74,33.79,9.78,-0.068,-0.868
522421,44.93,31.74,33.48,9.76,-0.024,-0.883
522925,44.05,30.86,33.16,9.78,0.036,-0.883
523428,47.57,30.86,33.48,9.78,0.021,-0.971
523932,45.81,30.86,33.79,9.75,0.065,-0.912
524436,47.57,30.86,33.32,9.76,0.125,-0.868
524940,46.69,30.86,33.79,9.76,0.095,-0.897
525444,46.69,30.86,33.95,9.75,0.080,-0.927
525947,51.09,31.74,34.42,9.69,-0.009,-0.868
526451,25.58,40.53,33.63,9.80,0.021,-0.942
526955,43.17,35.26,34.11,9.60,0.184,-1.045
527459,45.81,30.86,36.94,9.78,0.154,-0.971
527963,46.69,30.86,33.63,9.73,0.110,-1.223
528466,46.69,30.86,33.00,9.73,-0.083,-0.927
528969,43.17,30.86,33.16,9.73,0.006,-0.883
529473,45.81,30.86,33.95,9.71,0.080,-0.897
529977,45.81,30.86,33.48,9.73,0.080,-0.868
530481,45.81,30.86,33.79,9.69,0.154,-0.897
530984,45.81,30.86,33.63,9.69,0.095,-0.883
531488,47.57,30.86,33.79,9.69,-0.009,-0.853
531992,47.57,30.86,33.32,9.69,-0.009,-0.912
532496,36.13,29.98,35.05,9.82,-0.024,-0.764
533000,45.81,30.86,33.63,9.65,0.065,-0.912
533504,45.81,29.98,33.48,9.67,-0.068,-0.897
534007,47.57,29.98,33.32,9.67,-0.053,-0.927
534511,45.81,29.98,33.16,9.71,0.095,-0.912
535015,47.57,29.98,32.84,9.65,-0.053,-0.853
535519,45.81,29.98,33.00,9.65,-0.098,-0.853
536023,46.69,30.86,33.48,9.64,0.021,-0.883
536526,45.81,29.98,33.48,9.65,0.021,-0.912
537030,45.81,29.98,33.32,9.65,0.036,-0.897
537534,45.81,29.98,32.53,9.64,0.051,-0.853
538038,37.89,28.22,33.48,9.56,-0.112,-0.927
538542,44.05,29.98,32.69,9.64,0.036,-0.912
539044,45.81,29.98,32.84,9.62,0.051,-0.868
539548,45.81,29.98,32.84,9.62,-0.009,-0.868
540052,47.57,29.98,33.00,9.62,0.006,-0.883
540556,47.57,29.98,32.69,9.60,0.065,-0.897
541060,45.81,29.98,33.16,9.60,0.006,-0.897
541563,45.81,29.98,32.53,9.60,0.095,-0.897
542067,47.57,29.98,32.53,9.58,0.213,-0.868
542571,46.69,29.98,33.00,9.58,0.065,-0.853
543075,45.81,29.10,32.53,9.58,0.051,-0.853
543579,48.45,29.98,32.37,9.56,0.110,-0.853
544082,39.65,29.98,31.58,9.56,0.391,-0.853
544586,68.69,33.50,36.31,9.67,0.258,-0.868
545090,32.62,34.38,30.48,9.36,-0.068,-1.016
545594,46.69,35.26,35.68,9.49,0.139,-0.971
546098,45.81,29.10,32.53,9.56,0.021,-1.120
546601,46.69,29.10,32.37,9.56,0.080,-0.912
547105,47.57,29.10,32.21,9.56,0.199,-0.868
547609,47.57,29.10,32.53,9.54,0.021,-0.897
548112,46.69,29.10,32.69,9.56,-0.009,-0.927
548616,46.69,29.10,33.00,9.54,0.095,-0.868
549120,46.69,29.10,32.53,9.54,0.051,-0.912
549623,45.81,29.10,32.37,9.54,0.080,-0.720
550127,45.81,29.10,32.37,9.54,0.065,-0.883
550631,47.57,29.10,31.90,9.53,-0.053,-0.853
551135,47.57,29.10,32.37,9.53,0.051,-0.897
551639,46.69,29.10,32.06,9.53,0.021,-0.942
552142,45.81,28.22,32.37,9.49,0.021,-0.883
552646,45.81,28.22,32.21,9.49,-0.068,-0.912
553150,45.81,28.22,31.90,9.51,-0.068,-0.853
553654,45.81,28.22,32.37,9.51,-0.083,-0.942
554158,47.57,28.22,31.90,9.51,0.006,-0.883
554661,46.69,29.10,31.58,9.47,0.036,-0.883
555165,46.69,28.22,31.43,9.51,-0.009,-0.927
555669,34.38,30.86,32.37,9.43,-0.024,-0.853
556173,47.57,28.22,31.43,9.51,0.036,-0.942
556677,47.57,28.22,31.58,9.49,0.006,-0.897
557180,46.69,28.22,31.74,9.45,-0.053,-0.853
557683,46.69,28.22,31.74,9.45,0.065,-0.912
558187,47.57,28.22,31.58,9.45,0.154,-0.912
558691,47.57,28.22,31.27,9.47,0.125,-0.927
559195,47.57,28.22,31.74,9.47,-0.038,-0.912
559698,45.81,27.34,31.74,9.43,0.021,-0.868
560202,46.69,27.34,31.11,9.43,0.110,-0.853
560706,46.69,27.34,31.11,9.43,-0.053,-0.897
561210,46.69,27.34,31.27,9.43,-0.098,-0.853
561714,46.69,27.34,31.27,9.43,0.065,-0.897
562217,50.21,28.22,35.37,9.38,0.362,-1.075
562721,54.61,33.50,32.21,9.32,-0.083,-0.542
563225,41.41,22.06,38.52,9.56,-0.038,-1.238
563729,46.69,29.98,30.79,9.34,0.110,-1.045
564233,46.69,30.86,34.58,9.29,0.258,-0.616
564737,45.81,27.34,31.43,9.38,0.139,-1.031
565240,46.69,27.34,31.74,9.38,0.051,-0.868
565744,46.69,27.34,31.27,9.36,0.051,-0.942
566248,46.69,27.34,31.11,9.42,0.051,-0.912
566752,47.57,26.46,31.11,9.38,0.021,-0.883
567256,56.37,25.58,35.37,9.42,0.036,-0.868
567759,46.69,27.34,30.79,9.36,0.080,-0.912
568263,46.69,26.46,30.79,9.34,0.021,-0.897
568766,46.69,27.34,31.11,9.36,0.036,-0.883
569270,47.57,27.34,30.79,9.34,-0.009,-0.883
569774,46.69,26.46,30.48,9.34,-0.009,-0.897
570277,46.69,26.46,30.64,9.34,0.036,-0.897
570781,47.57,26.46,31.11,9.34,0.095,-0.912
571285,46.69,26.46,30.95,9.36,0.006,-0.883
571789,47.57,26.46,30.95,9.32,0.065,-0.883
572293,46.69,26.46,30.48,9.32,-0.009,-0.838
572796,45.81,26.46,30.79,9.31,-0.024,-0.868
573300,47.57,26.46,30.64,9.31,0.021,-0.942
573804,45.81,26.46,30.79,9.31,-0.009,-0.912
574308,44.93,26.46,30.79,9.29,-0.098,-0.883
574812,45.81,26.46,30.64,9.29,0.021,-0.897
575315,48.45,26.46,30.79,9.29,0.065,-0.897
575819,45.81,26.46,30.48,9.29,0.006,-0.897
576323,54.61,26.46,30.32,9.16,-0.275,-0.986
576827,54.61,28.22,31.74,9.25,-0.275,-0.660
577331,25.58,26.46,31.74,9.21,-0.112,-1.253
577833,43.17,16.78,29.69,9.07,0.021,-1.016
578337,46.69,23.82,32.21,9.21,0.213,-1.134
578841,25.58,27.34,30.32,9.25,-0.186,-0.809
579345,46.69,26.46,30.48,9.25,0.036,-0.853
579849,46.69,26.46,30.48,9.25,0.051,-0.838
580353,47.57,25.58,29.85,9.25,0.095,-0.883
580856,47.57,25.58,30.64,9.25,0.006,-0.912
581360,46.69,25.58,30.79,9.25,-0.009,-0.897
581864,46.69,25.58,30.64,9.25,-0.024,-0.838
582368,46.69,25.58,30.64,9.23,0.036,-0.883
582872,46.69,25.58,30.01,9.23,0.095,-0.868
583375,46.69,25.58,30.79,9.18,-0.009,-0.868
583879,46.69,25.58,30.48,9.21,-0.024,-0.838
584383,47.57,24.70,30.64,9.20,0.065,-0.853
584887,45.81,24.70,30.48,9.20,-0.024,-0.883
585391,45.81,24.70,30.48,9.20,0.051,-0.927
585894,47.57,24.70,30.48,9.20,0.021,-0.927
586398,46.69,24.70,30.01,9.20,-0.038,-0.912
586902,45.81,24.70,30.32,9.18,0.021,-0.927
587405,47.57,24.70,29.69,9.20,-0.009,-0.927
587909,47.57,24.70,30.48,9.18,0.080,-0.868
588412,45.81,24.70,30.01,9.18,0.036,-0.868
588916,45.81,24.70,30.48,9.16,-0.127,-0.897
589420,47.57,24.70,30.01,9.16,0.021,-0.942
589924,45.81,23.82,29.85,9.16,0.006,-0.868
590428,44.05,24.70,31.43,9.09,-0.172,-0.868
590931,37.01,28.22,32.69,9.18,-0.157,-0.660
591435,36.13,24.70,31.43,9.09,0.080,-0.868
591939,25.58,32.62,31.43,9.07,-0.098,-1.031
592443,46.69,24.70,30.32,9.23,-0.038,-0.675
592947,46.69,24.70,29.85,9.10,0.051,-0.883
593451,46.69,24.70,29.85,9.10,0.051,-0.868
593954,46.69,23.82,30.16,9.12,0.080,-0.868
594458,46.69,24.70,30.32,9.09,-0.009,-0.897
594962,46.69,23.82,29.53,9.10,-0.009,-0.883
595466,46.69,23.82,30.01,9.12,-0.009,-0.897
595970,45.81,23.82,30.32,9.10,0.036,-0.868
596472,59.01,25.58,30.48,9.07,0.213,-1.045
596976,48.45,23.82,30.01,9.09,0.065,-0.838
597480,46.69,23.82,29.53,9.09,-0.009,-0.912
597984,46.69,23.82,29.85,9.09,-0.024,-0.912
598488,48.45,22.94,30.48,9.07,-0.024,-0.883
598991,47.57,23.82,30.16,9.07,0.021,-0.868
599495,48.45,23.82,30.01,9.07,0.021,-0.883
599999,46.69,23.82,30.01,9.07,0.021,-0.883
600503,48.45,23.82,29.85,9.09,0.006,-0.838
601007,45.81,23.82,29.69,9.05,-0.024,-0.927
601510,48.45,23.82,29.85,9.05,0.051,-0.868
602014,44.93,23.82,28.11,9.03,-0.053,-0.971
602518,46.69,23.82,29.38,9.03,0.021,-0.853
603022,48.45,23.82,30.16,9.05,0.006,-0.883
603526,45.81,23.82,29.53,9.03,-0.053,-0.897
604029,48.45,22.94,30.01,9.03,0.095,-0.912
604532,48.45,22.94,29.69,9.03,0.125,-0.897
605036,48.45,22.94,30.16,9.01,-0.024,-0.912
605540,45.81,22.94,30.01,9.01,-0.053,-0.927
606044,46.69,22.06,29.53,9.01,0.036,-0.853
606547,48.45,22.94,29.85,9.01,-0.009,-0.897
607051,44.93,22.94,29.69,8.99,-0.053,-0.897
607555,46.69,22.06,29.53,8.99,0.006,-0.912
608059,49.33,22.94,29.38,8.99,-0.024,-0.912
608563,49.33,22.94,29.85,8.99,0.065,-0.927
609067,46.69,22.94,30.16,8.98,-0.038,-1.045
609570,59.01,28.22,28.27,9.16,0.065,-0.468
610074,58.13,22.94,34.11,8.92,0.006,-1.001
610578,72.21,11.50,32.06,8.76,0.347,-0.823
611082,45.81,16.78,30.79,8.88,0.095,-0.809
611586,47.57,22.06,28.59,8.96,0.080,-1.016
612089,45.81,22.06,29.38,8.96,0.080,-0.853
612593,47.57,22.94,28.90,8.96,0.110,-0.912
613096,45.81,22.06,28.75,8.94,-0.083,-0.942
613600,56.37,23.82,28.75,8.96,-0.112,-0.971
614104,45.81,22.06,29.38,8.94,0.139,-0.838
614607,46.69,22.06,29.38,8.94,0.036,-0.897
615111,46.69,22.06,28.75,8.94,-0.009,-0.897
615615,45.81,22.06,29.06,8.92,0.080,-0.897
616119,48.45,22.06,29.06,8.92,0.036,-0.883
616623,46.69,22.06,29.06,8.92,0.110,-0.897
617126,45.81,22.06,29.06,8.92,-0.083,-0.927
617630,48.45,22.06,28.43,8.94,0.051,-0.868
618134,45.81,21.18,28.59,8.88,-0.053,-0.838
618638,45.81,21.18,28.75,8.88,0.021,-0.853
619142,45.81,21.18,28.75,8.87,0.036,-0.927
619645,45.81,21.18,28.59,8.88,-0.024,-0.912
620149,46.69,21.18,28.11,8.88,0.125,-0.838
620653,45.81,21.18,28.43,8.87,-0.024,-0.912
621157,46.69,21.18,27.96,8.87,0.051,-0.942
621661,46.69,21.18,28.43,8.87,-0.009,-0.927
622163,45.81,21.18,27.80,8.87,0.036,-0.838
622667,48.45,21.18,28.59,8.87,0.006,-0.868
623171,48.45,21.18,28.11,8.87,-0.009,-0.942
623675,46.69,21.18,27.01,8.85,0.080,-0.853
624179,46.69,21.18,29.53,8.85,0.006,-0.912
624683,47.57,22.06,28.11,8.85,0.006,-0.927
625186,54.61,18.54,29.53,8.79,0.095,-0.912
625690,51.09,22.06,28.11,8.74,0.051,-0.838
626194,64.29,16.78,31.27,8.74,-0.216,-0.897
626698,44.93,15.90,32.06,8.81,0.243,-0.690
627202,35.26,37.89,31.90,8.79,-0.053,-0.883
627705,48.45,18.54,24.80,8.52,0.125,-0.586
628209,49.33,21.18,27.48,8.83,-0.186,-0.883
628713,46.69,21.18,27.64,8.79,-0.024,-0.897
629217,47.57,21.18,27.96,8.77,0.006,-0.912
629721,47.57,21.18,27.64,8.79,-0.024,-0.897
630224,46.69,20.30,27.17,8.77,-0.068,-0.912
630728,49.33,20.30,27.33,8.79,0.139,-0.853
631231,59.01,23.82,28.75,8.70,-0.068,-0.986
631735,46.69,20.30,27.33,8.77,0.036,-0.853
632239,44.93,20.30,27.33,8.77,0.065,-0.883
632742,45.81,21.18,26.85,8.76,0.006,-0.942
633246,48.45,20.30,27.01,8.76,0.036,-0.912
633750,48.45,20.30,27.17,8.76,0.110,-0.853
634254,45.81,20.30,27.01,8.76,0.065,-0.883
634758,45.81,20.30,26.38,8.76,0.095,-0.942
635261,48.45,20.30,26.54,8.74,0.036,-0.853
635765,45.81,20.30,26.38,8.74,0.036,-0.853
636269,45.81,20.30,26.54,8.72,-0.038,-0.927
636773,45.81,19.42,26.22,8.72,-0.053,-0.927
637277,48.45,20.30,26.07,8.74,-0.024,-0.897
637780,49.33,20.30,26.22,8.74,-0.038,-0.868
638284,45.81,20.30,25.91,8.72,0.051,-0.883
638788,45.81,20.30,26.07,8.70,-0.024,-0.927
639292,47.57,20.30,25.59,8.70,0.125,-0.912
639795,48.45,19.42,25.28,8.76,0.021,-0.853
640299,44.93,21.18,30.95,8.66,-0.157,-0.942
640802,53.73,30.86,31.27,8.66,0.006,-0.438
641306,25.58,19.42,25.12,8.59,0.036,-1.016
641810,45.81,20.30,24.96,8.65,0.095,-0.942
642314,45.81,19.42,25.59,8.68,0.006,-0.927
642818,44.93,21.18,24.17,8.68,-0.068,-0.868
643321,46.69,19.42,25.59,8.66,0.095,-0.897
643825,46.69,19.42,25.12,8.65,0.125,-0.838
644329,46.69,19.42,24.80,8.66,-0.038,-0.823
644833,48.45,19.42,25.43,8.65,-0.009,-0.897
645337,48.45,19.42,25.75,8.68,0.080,-0.971
645840,48.45,19.42,25.28,8.61,0.021,-0.868
646344,48.45,19.42,25.59,8.63,-0.038,-0.883
646848,46.69,19.42,24.96,8.63,0.021,-0.897
647352,45.81,19.42,25.43,8.63,-0.009,-0.927
647856,48.45,18.54,24.96,8.63,0.110,-0.897
648359,48.45,19.42,25.43,8.61,0.095,-0.868
648862,46.69,18.54,24.96,8.61,-0.068,-0.868
649366,48.45,18.54,25.28,8.61,0.036,-0.912
649870,46.69,18.54,24.49,8.61,0.139,-0.868
650374,47.57,18.54,24.96,8.59,0.006,-0.868
650877,48.45,18.54,24.49,8.61,-0.038,-0.942
651381,45.81,18.54,24.65,8.59,0.036,-0.957
651885,48.45,18.54,24.49,8.59,0.006,-0.868
652389,48.45,18.54,24.49,8.59,0.036,-0.794
652893,48.45,18.54,24.49,8.55,0.036,-0.853
653396,46.69,18.54,24.17,8.57,-0.024,-0.957
653900,46.69,18.54,24.17,8.55,0.036,-0.897
654404,63.41,19.42,23.86,8.52,-0.142,-0.897
654908,50.21,18.54,24.17,8.59,-0.098,-0.883
655412,46.69,18.54,24.33,8.55,0.125,-0.942
655916,46.69,18.54,24.17,8.55,0.154,-0.853
656419,48.45,18.54,23.86,8.55,0.006,-0.868
656923,45.81,18.54,23.70,8.55,0.021,-0.868
657427,46.69,18.54,23.23,8.55,-0.009,-0.912
657930,45.81,18.54,23.54,8.54,0.021,-0.912
658434,46.69,17.66,24.49,8.59,0.139,-0.957
658937,38.77,21.18,25.43,8.46,-0.320,-0.942
659441,47.57,22.94,25.75,8.50,0.065,-1.149
659945,35.26,28.22,23.38,8.32,-0.068,-1.120
660449,56.37,21.18,25.91,8.54,-0.394,-1.060
660953,48.45,17.66,23.07,8.52,-0.127,-0.809
661456,48.45,17.66,23.70,8.52,0.051,-0.897
661960,48.45,18.54,23.70,8.50,0.006,-0.897
662464,49.33,18.54,23.38,8.50,-0.009,-0.868
662968,48.45,18.54,23.38,8.48,0.006,-0.883
663472,48.45,18.54,23.54,8.48,-0.009,-0.883
663975,48.45,18.54,23.54,8.48,0.021,-0.868
664479,50.21,17.66,22.75,8.48,0.051,-0.883
664983,48.45,18.54,23.38,8.50,-0.024,-0.942
665487,45.81,17.66,22.60,8.46,0.051,-0.883
665991,63.41,19.42,22.28,8.43,0.021,-0.868
666494,47.57,17.66,22.91,8.46,0.006,-0.912
666997,48.45,17.66,22.60,8.46,0.006,-0.883
667501,47.57,17.66,22.75,8.44,0.006,-0.912
668005,46.69,17.66,22.44,8.44,-0.038,-0.868
668509,47.57,17.66,22.60,8.44,-0.024,-0.912
669012,48.45,17.66,22.91,8.44,-0.009,-0.883
669516,45.81,17.66,22.91,8.44,0.006,-0.883
670020,46.69,17.66,21.97,8.43,-0.024,-0.868
670524,49.33,17.66,20.39,8.44,0.065,-0.883
671028,46.69,17.66,22.44,8.43,0.065,-0.883
671532,48.45,17.66,22.28,8.41,0.051,-0.883
672035,48.45,17.66,21.97,8.41,0.021,-0.897
672539,47.57,16.78,21.97,8.39,0.006,-0.868
673043,48.45,17.66,22.12,8.39,0.006,-0.853
673547,48.45,16.78,21.81,8.39,0.051,-0.868
674051,45.81,16.78,22.12,8.39,0.051,-0.897
674554,46.69,16.78,22.12,8.39,0.065,-0.897
675058,48.45,16.78,21.65,8.41,-0.038,-0.912
675562,46.69,16.78,22.12,8.37,-0.024,-0.838
676065,48.45,16.78,21.81,8.37,0.065,-0.838
676569,48.45,16.78,21.97,8.37,0.065,-0.883
677072,39.65,16.78,22.75,8.44,0.006,-0.912
677576,39.65,11.50,25.43,8.28,0.021,-1.282
678080,44.93,15.90,23.23,8.43,0.006,-0.823
678584,50.21,19.42,22.91,8.17,-0.201,-1.297
679088,46.69,16.78,22.28,8.35,-0.009,-1.016
679591,49.33,16.78,21.49,8.33,-0.009,-0.838
680095,48.45,16.78,21.18,8.33,0.051,-0.838
680599,48.45,16.78,21.65,8.35,0.036,-0.942
681103,45.81,16.78,21.65,8.30,-0.038,-0.942
681607,46.69,16.78,21.65,8.32,0.006,-0.883
682110,46.69,16.78,21.49,8.32,0.080,-0.838
682614,46.69,16.78,21.02,8.33,-0.009,-0.942
683118,48.45,15.90,21.65,8.32,0.051,-0.853
683622,41.41,16.78,24.17,8.28,-0.038,-0.853
684126,46.69,15.90,20.55,8.30,-0.009,-0.868
684628,49.33,15.90,21.18,8.32,0.006,-0.897
685132,48.45,15.90,21.18,8.30,-0.038,-0.897
685636,48.45,15.90,20.55,8.30,0.006,-0.897
686140,45.81,16.78,20.39,8.30,-0.038,-0.927
686644,46.69,16.78,21.18,8.30,0.021,-0.897
687148,48.45,15.90,20.70,8.28,0.006,-0.912
687651,45.81,15.90,20.39,8.28,-0.024,-0.942
688155,46.69,16.78,20.07,8.28,0.006,-0.912
688659,46.69,15.90,21.02,8.28,0.021,-0.883
689163,44.93,16.78,22.44,8.28,-0.098,-0.971
689667,49.33,16.78,20.55,8.26,-0.024,-0.897
690170,47.57,15.90,20.23,8.24,0.006,-0.883
690674,49.33,15.90,20.70,8.24,-0.009,-0.912
691178,47.57,15.90,19.60,8.24,-0.024,-0.868
691682,48.45,15.90,20.70,8.24,0.036,-0.868
692186,54.61,15.90,20.23,8.15,-0.038,-0.853
692688,57.25,14.14,20.86,8.13,-0.335,-0.690
693192,49.33,14.14,20.07,8.15,0.021,-1.016
693696,46.69,21.18,20.23,8.17,0.006,-1.016
694200,46.69,15.02,19.76,8.22,-0.024,-0.883
694704,48.45,15.02,19.92,8.22,0.036,-0.897
695207,56.37,16.78,20.55,8.21,0.006,-0.912
695711,48.45,15.02,20.39,8.19,0.006,-0.883
696215,46.69,15.02,19.92,8.21,-0.038,-0.853
696719,48.45,15.02,20.07,8.21,0.021,-0.853
697223,47.57,14.14,20.07,8.19,0.006,-0.897
697726,45.81,14.14,20.23,8.17,0.036,-0.927
698230,48.45,15.02,19.60,8.19,0.021,-0.883
698734,48.45,15.02,20.55,8.21,0.021,-0.897
699238,46.69,14.14,19.92,8.19,0.006,-0.868
699742,48.45,15.02,19.92,8.17,0.021,-0.942
700246,48.45,15.02,20.07,8.17,-0.038,-0.927
700749,54.61,14.14,22.75,8.13,-0.068,-0.853
701253,48.45,15.02,20.39,8.15,0.036,-0.868
701756,48.45,15.02,19.76,8.15,-0.068,-0.868
702260,47.57,14.14,19.76,8.15,-0.083,-0.883
702764,48.45,14.14,19.92,8.15,0.051,-0.912
703267,47.57,14.14,19.13,8.15,0.051,-0.883
703771,46.69,14.14,19.29,8.15,0.051,-0.897
704275,48.45,14.14,19.44,8.13,0.051,-0.897
704779,46.69,14.14,19.92,8.13,0.036,-0.883
705283,49.33,14.14,19.44,8.15,0.065,-0.883
705786,44.93,15.02,19.92,8.15,-0.083,-0.764
706290,36.13,15.90,21.02,8.02,0.406,-0.927
706794,22.06,14.14,19.44,7.95,-0.275,-0.897
707298,55.49,0.94,24.02,8.22,0.021,-1.001
707802,46.69,14.14,21.97,8.06,-0.083,-1.253
708305,48.45,14.14,18.50,8.11,0.006,-0.986
708809,46.69,14.14,19.60,8.10,0.006,-0.942
709313,46.69,14.14,19.13,8.10,-0.009,-0.897
709817,46.69,14.14,18.97,8.08,0.095,-0.897
710320,47.57,14.14,18.81,8.10,0.065,-0.897
710823,48.45,14.14,18.97,8.08,0.021,-0.897
711327,48.45,14.14,18.65,8.08,0.065,-0.883
711831,48.45,14.14,18.34,8.06,0.021,-0.868
712335,48.45,14.14,18.65,8.06,0.006,-0.927
712839,46.69,14.14,18.50,8.06,0.080,-0.883
713342,47.57,14.14,18.18,8.06,0.006,-0.912
713846,46.69,15.02,17.71,8.02,-0.024,-0.897
714350,48.45,14.14,18.18,8.06,-0.009,-0.868
714854,46.69,14.14,17.87,8.02,0.065,-0.883
715358,46.69,14.14,18.18,8.04,0.080,-0.927
715862,47.57,14.14,17.71,8.02,0.006,-0.883
716365,48.45,14.14,18.34,8.00,0.036,-0.912
716869,46.69,13.26,17.55,8.02,0.036,-0.927
717373,48.45,14.14,18.18,8.00,0.021,-0.897
717877,46.69,13.26,18.18,8.02,-0.024,-0.883
718380,44.93,14.14,17.08,7.97,-0.157,-0.986
718883,48.45,14.14,17.87,8.00,0.006,-0.853
719387,47.57,13.26,17.71,8.00,-0.009,-0.912
719891,48.45,13.26,18.02,8.00,0.006,-0.912
720395,49.33,13.26,17.24,7.99,-0.009,-0.883
720899,46.69,13.26,18.02,8.00,-0.038,-0.823
721402,49.33,13.26,17.55,7.99,0.051,-0.897
721906,48.45,13.26,17.55,7.99,0.036,-0.912
722410,49.33,13.26,17.08,7.97,0.080,-0.853
722914,49.33,13.26,16.92,7.99,0.036,-0.912
723418,49.33,13.26,16.92,7.99,-0.024,-0.853
723921,48.45,13.26,17.24,8.00,0.006,-0.868
724425,44.93,13.26,15.66,7.99,-0.290,-0.853
724929,61.65,14.14,16.45,7.86,0.021,-0.942
725433,25.58,7.10,21.18,8.04,0.273,-0.690
725936,33.50,28.22,17.08,7.84,0.021,-0.971
726439,47.57,14.14,21.18,8.02,0.125,-0.586
726943,48.45,12.38,17.08,7.95,0.021,-0.646
727447,46.69,12.38,16.92,7.93,0.006,-0.883
727951,47.57,12.38,16.61,7.91,-0.009,-0.883
728455,48.45,12.38,16.61,7.95,-0.038,-0.986
728958,49.33,12.38,17.08,7.93,-0.009,-0.897
729462,49.33,11.50,16.13,7.91,0.021,-0.868
729966,59.01,11.50,15.97,7.82,0.021,-0.794
730470,48.45,12.38,16.45,7.91,0.125,-0.912
730974,48.45,12.38,16.61,7.93,0.065,-0.883
731478,48.45,12.38,16.45,7.91,-0.024,-0.853
731981,48.45,11.50,16.13,7.88,0.036,-0.853
732485,46.69,11.50,15.82,7.89,-0.038,-0.883
732989,48.45,11.50,16.29,7.89,0.065,-0.897
733493,46.69,12.38,16.61,7.89,0.006,-0.927
733997,46.69,11.50,16.29,7.88,0.080,-0.927
734500,46.69,12.38,15.97,7.88,0.051,-0.897
735004,47.57,12.38,15.97,7.88,0.021,-0.868
735507,49.33,12.38,16.29,7.88,0.051,-0.838
736011,54.61,12.38,16.29,7.95,-0.275,-0.927
736515,25.58,9.74,16.13,7.62,0.184,-1.238
737018,54.61,19.42,18.18,7.77,0.051,-1.282
737522,68.69,33.50,14.40,8.00,-0.053,-0.883
738026,46.69,9.74,18.18,7.89,-0.127,-0.883
738530,48.45,12.38,15.82,7.91,-0.024,-0.483
739034,49.33,12.38,15.97,7.82,0.065,-0.942
739537,49.33,12.38,15.34,7.82,-0.024,-0.927
740041,46.69,12.38,15.34,7.82,-0.009,-0.868
740545,48.45,12.38,15.82,7.86,0.006,-0.883
741049,49.33,11.50,15.66,7.80,0.051,-0.883
741553,42.29,9.74,15.97,7.82,0.154,-0.868
742056,48.45,11.50,15.50,7.82,0.139,-0.868
742560,48.45,11.50,15.34,7.82,-0.038,-0.897
743064,49.33,11.50,15.97,7.80,0.006,-0.883
743567,50.21,11.50,14.87,7.80,0.051,-0.853
744071,48.45,11.50,15.34,7.80,-0.009,-0.927
744574,49.33,11.50,15.03,7.82,-0.216,-0.883
745078,48.45,11.50,15.34,7.80,-0.009,-0.838
745582,48.45,11.50,15.66,7.80,0.006,-0.942
746086,47.57,11.50,15.50,7.80,0.021,-0.912
746590,49.33,11.50,15.34,7.78,0.125,-0.809
747094,49.33,11.50,16.13,7.78,0.095,-0.853
747597,49.33,11.50,15.34,7.78,0.051,-0.897
748101,49.33,11.50,15.34,7.78,-0.024,-0.912
748605,46.69,11.50,15.03,7.78,-0.068,-0.912
749109,48.45,11.50,14.87,7.77,0.095,-0.883
749613,47.57,10.62,15.34,7.73,-0.053,-0.912
750116,49.33,10.62,15.82,7.75,0.006,-0.912
750620,46.69,11.50,16.29,7.78,0.376,-0.853
751124,59.01,9.74,18.65,7.82,0.095,-0.986
751627,53.73,14.14,19.44,7.71,-0.009,-0.483
752131,22.06,5.34,15.03,7.89,0.228,-0.971
752634,48.45,8.86,18.81,7.56,0.376,-0.868
753138,48.45,10.62,14.08,7.73,0.006,-0.971
753642,40.53,8.86,14.56,7.71,-0.053,-0.957
754146,50.21,10.62,15.66,7.73,0.036,-0.912
754650,47.57,10.62,15.34,7.71,0.021,-0.912
755153,48.45,10.62,15.50,7.71,-0.024,-0.883
755657,49.33,10.62,15.66,7.71,0.006,-0.942
756161,49.33,10.62,15.34,7.67,0.006,-0.883
756665,49.33,10.62,14.71,7.71,0.095,-0.838
757169,47.57,10.62,15.34,7.71,0.065,-0.883
757672,48.45,10.62,14.87,7.71,0.080,-0.912
758176,50.21,10.62,15.03,7.71,0.065,-0.838
758679,46.69,9.74,15.19,7.71,0.036,-0.912
759183,61.65,11.50,15.66,7.69,0.051,-0.971
759687,48.45,9.74,15.03,7.69,-0.009,-0.897
760190,48.45,9.74,15.50,7.69,0.006,-0.897
760694,49.33,9.74,15.50,7.67,-0.068,-0.927
761198,48.45,9.74,14.71,7.67,0.036,-0.897
761702,47.57,9.74,14.71,7.67,0.006,-0.897
762206,49.33,9.74,15.34,7.67,0.021,-0.883
762710,49.33,10.62,14.71,7.66,0.021,-0.912
763213,46.69,9.74,14.71,7.66,0.006,-0.912
763717,50.21,9.74,14.71,7.66,0.021,-0.897
764220,47.57,9.74,14.87,7.66,0.125,-0.868
764724,49.33,9.74,14.71,7.66,0.095,-0.868
765228,47.57,9.74,15.34,7.64,0.051,-0.868
765731,48.45,9.74,15.34,7.64,0.065,-0.883
766235,50.21,9.74,14.40,7.64,0.065,-0.897
766739,49.33,9.74,15.03,7.64,0.036,-0.942
767243,49.33,9.74,15.03,7.64,0.006,-0.883
767747,49.33,9.74,14.87,7.62,0.036,-0.883
768250,48.45,9.74,14.87,7.62,0.036,-0.912
768754,51.09,9.74,14.87,7.62,-0.038,-0.912
769257,46.69,9.74,12.98,7.62,-0.127,-1.075
769761,44.05,7.10,18.65,7.60,-0.157,-1.031
770265,34.38,11.50,17.87,7.78,-0.068,-0.601
770768,49.33,9.74,14.56,7.58,0.347,-0.883
771272,57.25,8.86,15.34,7.69,-0.142,-0.868
771776,49.33,9.74,14.87,7.60,-0.009,-0.986
772280,49.33,9.74,14.87,7.60,-0.038,-0.853
772784,50.21,9.74,14.71,7.58,0.036,-0.883
773287,48.45,9.74,14.71,7.58,0.125,-0.927
773791,48.45,9.74,14.08,7.58,0.006,-0.883
774295,48.45,8.86,15.03,7.58,0.095,-0.838
774798,48.45,8.86,14.71,7.58,0.184,-0.868
775302,48.45,8.86,15.19,7.58,0.006,-0.897
775805,50.21,8.86,14.87,7.56,0.184,-0.868
776309,48.45,8.86,14.87,7.58,-0.068,-0.927
776813,49.33,8.86,14.87,7.56,-0.038,-0.912
777317,46.69,8.86,14.87,7.55,-0.038,-0.897
777821,47.57,8.86,15.34,7.55,0.036,-0.853
778324,51.09,8.86,14.40,7.55,-0.009,-0.868
778828,48.45,8.86,15.03,7.55,0.139,-0.868
779332,48.45,8.86,14.24,7.53,0.095,-0.868
779835,48.45,8.86,15.03,7.55,0.051,-0.912
780339,49.33,8.86,14.87,7.53,0.036,-0.883
780843,48.45,8.86,15.03,7.53,-0.009,-0.897
781346,49.33,7.98,14.71,7.53,0.006,-0.912
781850,47.57,7.98,14.71,7.53,0.065,-0.912
782354,49.33,7.98,14.24,7.53,-0.053,-0.897
782858,40.53,7.98,14.24,7.55,-0.246,-0.764
783362,47.57,7.98,14.87,7.51,-0.053,-0.868
783865,46.69,7.98,14.71,7.51,-0.024,-0.897
784369,48.45,7.98,15.50,7.51,-0.009,-0.942
784872,46.69,7.98,14.56,7.51,0.036,-0.897
785376,47.57,7.98,14.87,7.49,-0.009,-0.897
785880,48.45,7.98,14.08,7.49,0.065,-0.912
786383,50.21,7.98,15.19,7.49,0.080,-0.868
786887,46.69,7.98,15.34,7.49,0.095,-0.868
787391,50.21,7.98,13.45,7.49,-0.038,-0.853
787895,59.89,4.46,12.82,7.40,0.273,-0.838
788399,63.41,5.34,14.40,7.67,-0.024,-0.853
788902,54.61,5.34,16.92,7.51,0.347,-1.357
789406,50.21,7.98,15.19,7.47,-0.098,-0.794
789909,49.33,7.10,14.87,7.45,-0.127,-0.897
790413,46.69,7.10,14.71,7.45,-0.053,-0.912
790917,48.45,7.10,14.40,7.45,0.080,-0.868
791420,51.09,7.10,15.03,7.45,0.021,-0.897
791924,51.09,7.10,14.24,7.45,0.095,-0.868
792428,49.33,7.10,14.71,7.44,0.080,-0.823
792932,49.33,7.10,15.03,7.44,0.051,-0.883
793436,50.21,7.10,14.40,7.44,0.006,-0.897
793939,49.33,7.10,15.50,7.44,-0.038,-0.957
794442,50.21,7.10,15.19,7.44,0.006,-0.927
794946,42.29,9.74,15.50,7.34,-0.216,-0.853
795450,49.33,7.10,14.40,7.42,0.065,-0.868
795954,46.69,7.10,14.40,7.42,0.154,-0.897
796457,49.33,7.10,14.56,7.40,0.095,-0.853
796961,48.45,7.10,14.56,7.40,0.139,-0.868
797465,48.45,7.10,14.24,7.42,0.110,-0.868
797969,49.33,6.22,13.77,7.40,-0.024,-0.927
798473,51.09,6.22,14.08,7.40,-0.009,-0.883
798976,49.33,6.22,14.56,7.40,0.065,-0.927
799479,48.45,6.22,14.87,7.38,0.080,-0.868
799983,48.45,6.22,14.40,7.38,0.169,-0.809
800487,48.45,6.22,14.87,7.36,0.139,-0.927
800991,54.61,6.22,14.71,7.44,0.006,-1.031
801495,63.41,2.70,12.82,7.58,-0.083,-0.883
801998,73.09,-5.21,17.55,7.18,-0.068,-0.927
802502,46.69,6.22,13.77,7.31,0.199,-0.942
803006,48.45,6.22,15.50,7.36,-0.172,-0.838
803510,48.45,5.34,15.34,7.34,-0.068,-0.868
804013,49.33,5.34,14.87,7.34,-0.009,-0.868
804516,50.21,5.34,14.56,7.36,-0.024,-0.897
805020,50.21,5.34,14.71,7.34,-0.024,-0.912
805524,49.33,4.46,14.71,7.34,0.036,-0.823
806028,49.33,5.34,14.24,7.34,0.065,-0.883
806532,49.33,5.34,13.92,7.34,0.065,-0.971
807035,50.21,5.34,15.03,7.34,0.110,-0.897
807539,50.21,5.34,15.19,7.33,0.051,-0.883
808043,48.45,5.34,14.40,7.31,-0.083,-0.957
808547,48.45,5.34,14.56,7.33,-0.112,-0.868
809051,49.33,5.34,14.87,7.33,0.051,-0.853
809553,48.45,5.34,14.24,7.31,0.110,-0.897
810057,48.45,5.34,14.56,7.31,0.125,-0.927
810561,49.33,5.34,14.56,7.31,-0.009,-0.868
811065,46.69,5.34,14.56,7.31,-0.157,-0.897
811569,46.69,5.34,14.40,7.31,-0.083,-0.912
812072,50.21,5.34,14.24,7.31,-0.068,-0.897
812576,44.93,2.70,12.98,7.23,0.095,-0.927
813080,49.33,5.34,13.92,7.31,0.021,-0.912
813584,50.21,5.34,14.71,7.29,0.065,-0.897
814088,43.17,5.34,12.35,7.31,-0.068,-0.794
814590,42.29,2.70,13.45,7.23,0.036,-0.912
815094,59.89,6.22,16.13,7.38,0.006,-0.927
815598,67.81,6.22,11.88,7.16,-0.009,-0.853
816102,49.33,4.46,13.29,7.20,-0.172,-1.016
816606,45.81,4.46,14.56,7.27,0.006,-0.883
817110,49.33,4.46,14.71,7.25,0.051,-0.942
817613,48.45,5.34,14.24,7.27,0.051,-0.838
818117,49.33,4.46,13.92,7.25,0.006,-0.883
818621,44.93,3.58,13.45,7.25,0.051,-0.971
819125,50.21,5.34,13.61,7.23,-0.009,-0.883
819629,49.33,5.34,13.14,7.23,-0.009,-0.868
820131,49.33,5.34,13.92,7.23,0.065,-0.942
820635,46.69,5.34,13.45,7.25,0.051,-0.912
821139,46.69,5.34,13.77,7.23,0.065,-0.883
821643,48.45,5.34,14.24,7.22,0.006,-0.868
822147,50.21,5.34,13.77,7.23,0.021,-0.897
822650,49.33,5.34,14.08,7.22,0.021,-0.868
823154,49.33,5.34,13.61,7.22,-0.009,-0.912
823658,48.45,5.34,13.61,7.22,-0.009,-0.912
824162,49.33,4.46,12.51,7.22,0.065,-0.912
824666,59.01,4.46,14.24,7.20,-0.157,-0.794
825168,50.21,4.46,13.77,7.20,0.036,-0.883
825672,50.21,5.34,13.61,7.20,0.036,-0.897
826176,50.21,5.34,14.24,7.20,-0.068,-0.868
826680,49.33,4.46,12.98,7.20,-0.024,-0.897
827184,50.21,5.34,13.14,7.20,0.006,-0.897
827687,49.33,5.34,13.29,7.20,0.051,-0.883
828191,48.45,5.34,12.82,7.18,0.065,-0.912
828695,51.09,5.34,12.66,7.18,0.021,-0.912
829199,49.33,5.34,13.14,7.16,0.021,-0.912
829702,50.21,5.34,13.14,7.16,0.021,-0.883
830205,50.21,5.34,12.98,7.18,0.021,-0.883
830709,47.57,6.22,12.35,7.16,-0.024,-0.912
831213,46.69,5.34,13.14,7.16,0.021,-0.897
831717,50.21,6.22,12.35,7.16,0.051,-0.897
832221,51.09,6.22,15.50,7.20,-0.068,-0.868
832724,44.93,2.70,11.72,7.01,0.495,-0.660
833228,56.37,3.58,11.56,7.14,-0.009,-0.690
833732,53.73,8.86,12.03,7.09,0.051,-0.986
834236,50.21,7.10,11.09,7.23,-0.246,-0.957
834739,50.21,6.22,12.35,7.14,-0.112,-0.705
835243,50.21,6.22,12.03,7.12,0.065,-0.897
835746,51.09,6.22,11.40,7.12,-0.038,-0.883
836250,47.57,6.22,12.35,7.12,-0.024,-0.868
836754,49.33,6.22,14.24,7.09,-0.083,-0.794
837258,49.33,6.22,12.35,7.12,-0.009,-0.912
837762,48.45,6.22,11.72,7.11,0.021,-0.897
838265,49.33,6.22,11.56,7.12,0.021,-0.912
838769,50.21,6.22,11.88,7.11,0.006,-0.853
839273,50.21,6.22,11.88,7.11,0.036,-0.838
839776,45.81,6.22,11.72,7.11,0.021,-0.883
840280,50.21,6.22,11.56,7.09,-0.024,-0.912
840783,49.33,6.22,11.09,7.11,0.021,-0.853
841287,49.33,5.34,11.88,7.11,-0.009,-0.912
841791,50.21,6.22,11.40,7.09,0.051,-0.942
842295,44.93,6.22,13.45,6.96,-0.098,-0.986
842799,47.57,5.34,11.24,7.09,0.006,-0.912
843302,48.45,5.34,11.24,7.09,0.006,-0.883
843806,50.21,5.34,10.93,7.07,0.021,-0.868
844310,50.21,5.34,11.24,7.07,0.006,-0.912
844813,50.21,5.34,11.09,7.07,0.006,-0.868
845317,51.09,5.34,11.72,7.05,0.036,-0.853
845820,46.69,5.34,11.72,7.05,0.051,-0.883
846324,48.45,5.34,10.93,7.07,0.006,-0.912
846828,48.45,5.34,10.61,7.05,0.006,-0.883
847332,48.45,5.34,10.61,7.05,0.006,-0.883
847836,46.69,5.34,11.09,7.05,-0.038,-0.883
848339,47.57,7.10,12.51,6.94,0.139,-0.853
848843,48.45,5.34,11.09,7.03,0.036,-0.912
849346,48.45,4.46,11.72,7.03,0.065,-0.868
849850,50.21,5.34,10.46,7.03,-0.024,-0.868
850354,49.33,4.46,11.24,7.03,0.006,-0.897
850857,44.93,4.46,13.77,6.98,0.006,-0.912
851361,59.01,14.14,12.19,7.16,0.095,-0.809
851865,63.41,-1.70,12.19,6.92,0.006,-1.045
852369,50.21,7.10,14.24,6.98,-0.083,-0.883
852873,50.21,4.46,11.09,7.11,0.095,-0.942
853377,50.21,4.46,10.61,7.00,0.110,-0.809
853879,49.33,4.46,10.61,7.01,0.036,-0.897
854383,44.93,7.10,8.88,7.05,-0.038,-0.883
854887,48.45,4.46,10.93,7.00,-0.009,-0.897
855391,50.21,4.46,11.09,7.00,-0.009,-0.883
855895,51.09,4.46,10.46,7.00,0.036,-0.897
856398,49.33,4.46,10.61,7.00,0.051,-0.868
856902,49.33,4.46,10.30,6.98,0.006,-0.897
857406,48.45,4.46,10.30,6.98,-0.053,-0.912
857910,51.09,4.46,10.93,6.98,0.006,-0.912
858413,49.33,3.58,10.46,6.98,0.065,-0.868
858916,51.09,4.46,10.30,6.98,0.051,-0.853
859420,46.69,4.46,10.14,6.98,0.051,-0.883
859924,49.33,4.46,10.46,6.96,0.095,-0.868
860428,50.21,4.46,10.61,6.96,0.125,-0.897
860932,49.33,4.46,10.30,6.96,0.021,-0.883
861435,51.09,3.58,10.14,6.96,0.036,-0.868
861939,48.45,3.58,10.30,6.94,0.006,-0.883
862443,49.33,3.58,10.30,6.94,-0.024,-0.927
862946,50.21,3.58,11.09,6.96,0.021,-0.912
863450,48.45,3.58,10.61,6.94,0.095,-0.883
863953,49.33,3.58,8.72,6.90,-0.112,-0.794
864457,49.33,7.10,10.93,7.03,0.006,-0.957
864961,37.89,6.22,12.03,6.78,0.332,-1.016
865465,50.21,7.10,9.35,7.00,-0.261,-1.031
865969,49.33,2.70,9.67,6.92,-0.068,-0.927
866472,44.05,0.94,11.40,6.94,0.021,-0.853
866975,48.45,2.70,9.98,6.92,0.095,-0.868
867479,50.21,3.58,10.30,6.92,0.021,-0.912
867983,49.33,2.70,10.61,6.92,0.036,-0.912
868487,48.45,2.70,10.77,6.89,0.036,-0.883
868990,49.33,3.58,10.30,6.90,-0.038,-0.897
869494,48.45,3.58,10.14,6.92,0.036,-0.957
869998,50.21,3.58,10.61,6.89,0.125,-0.868
870502,49.33,3.58,10.30,6.89,0.065,-0.897
871006,49.33,2.70,10.61,6.89,0.021,-0.883
871508,48.45,2.70,10.30,6.89,-0.083,-0.912
872012,49.33,2.70,9.98,6.89,-0.053,-0.897
872516,51.09,3.58,9.98,6.89,0.125,-0.883
873020,46.69,3.58,9.51,6.89,0.139,-0.897
873524,49.33,3.58,9.98,6.87,0.125,-0.912
874028,51.09,2.70,10.14,6.89,0.110,-0.868
874531,50.21,3.58,9.83,6.87,0.051,-0.868
875035,49.33,2.70,10.14,6.87,0.006,-0.897
875538,49.33,3.58,9.19,6.87,0.006,-0.912
876042,49.33,3.58,10.14,6.87,0.051,-0.868
876546,49.33,3.58,9.51,6.87,0.095,-0.912
877049,50.21,3.58,10.14,6.87,0.065,-0.853
877553,50.21,3.58,10.14,6.85,0.095,-0.897
878057,50.21,3.58,9.98,6.85,0.021,-0.897
878561,48.45,3.58,9.83,6.83,-0.024,-0.912
879065,51.09,3.58,9.04,6.83,0.006,-0.853
879567,48.45,2.70,9.51,6.83,0.051,-0.912
880071,46.69,2.70,9.98,6.81,0.080,-0.897
880575,51.09,3.58,9.83,6.83,0.051,-0.897
881079,50.21,2.70,9.35,6.81,-0.009,-0.912
881583,48.45,2.70,9.51,6.81,0.006,-0.897
882086,41.41,2.70,8.56,6.89,0.139,-0.883
882589,44.93,3.58,9.35,7.03,0.243,-1.045
883093,43.17,2.70,11.24,6.79,-0.112,-0.794
883597,23.82,8.86,7.93,6.94,0.258,-0.809
884101,49.33,2.70,7.78,6.79,0.154,-0.971
884604,44.93,0.06,7.93,6.85,0.006,-0.779
885108,50.21,2.70,9.67,6.79,0.051,-0.897
885612,50.21,2.70,10.46,6.79,0.006,-0.883
886115,48.45,1.82,10.30,6.78,0.021,-0.897
886619,48.45,1.82,9.67,6.78,0.006,-0.883
887122,50.21,2.70,9.98,6.78,0.006,-0.912
887626,50.21,2.70,9.04,6.76,0.021,-0.883
888130,50.21,2.70,9.98,6.76,0.065,-0.897
888634,50.21,1.82,9.83,6.78,0.051,-0.868
889138,49.33,1.82,10.14,6.78,0.021,-0.942
889641,50.21,1.82,10.30,6.74,-0.009,-0.868
890144,46.69,1.82,10.30,6.78,0.036,-0.868
890648,63.41,0.06,7.93,6.74,0.036,-0.942
891152,48.45,1.82,9.83,6.76,-0.009,-0.912
891656,51.09,1.82,9.83,6.76,0.006,-0.897
892160,46.69,1.82,9.51,6.74,0.006,-0.897
892663,50.21,1.82,10.30,6.72,0.006,-0.912
893167,50.21,1.82,9.98,6.74,0.021,-0.897
893670,50.21,1.82,9.67,6.74,0.080,-0.883
894174,50.21,1.82,9.83,6.72,0.021,-0.868
894678,46.69,1.82,9.19,6.76,0.021,-0.897
895181,48.45,1.82,9.51,6.74,-0.009,-0.883
895685,48.45,1.82,9.83,6.72,0.051,-0.853
896189,50.21,1.82,9.83,6.72,0.036,-0.897
896693,46.69,0.94,9.67,6.72,0.006,-0.883
897196,49.33,0.94,9.67,6.72,0.021,-0.897
897699,49.33,0.94,10.30,6.70,-0.009,-0.897
898203,46.69,0.94,9.98,6.70,0.036,-0.883
898707,50.21,0.94,9.35,6.72,-0.024,-0.868
899211,49.33,0.94,10.30,6.68,0.021,-0.883
899715,48.45,0.94,9.67,6.70,0.021,-0.912
900218,44.93,0.94,7.78,6.74,0.139,-0.823
900721,39.65,-0.82,11.24,6.54,-0.038,-1.031
901225,47.57,7.10,10.30,6.76,0.391,-1.105
901729,51.09,0.94,10.46,6.76,0.362,-0.557
902233,51.09,0.94,9.83,6.67,-0.068,-0.868
902736,56.37,-0.82,8.09,6.59,0.095,-0.912
903240,51.09,0.94,9.83,6.67,0.065,-0.853
903744,46.69,0.94,9.83,6.67,0.036,-0.927
904248,48.45,0.94,9.67,6.68,0.051,-0.883
904751,49.33,0.94,9.83,6.67,-0.009,-0.897
905254,49.33,0.06,10.30,6.67,0.021,-0.897
905758,51.09,0.94,9.67,6.67,0.065,-0.897
906262,49.33,0.06,9.04,6.67,0.036,-0.912
906766,50.21,0.06,9.67,6.65,0.051,-0.897
907270,50.21,0.06,9.83,6.65,0.065,-0.897
907773,51.09,0.06,9.19,6.65,0.080,-0.853
908276,51.09,0.06,9.83,6.65,0.006,-0.912
908780,41.41,0.94,6.83,6.67,0.080,-1.016
909284,49.33,0.06,8.56,6.63,0.021,-0.883
909788,51.09,0.06,9.67,6.63,-0.009,-0.912
910291,51.09,0.06,9.35,6.65,0.021,-0.927
910795,50.21,0.06,10.30,6.63,0.036,-0.897
911298,50.21,0.06,9.35,6.63,0.051,-0.883
911802,50.21,0.06,9.35,6.61,0.036,-0.868
912306,49.33,0.06,10.14,6.61,-0.009,-0.883
912809,50.21,0.06,9.51,6.61,0.065,-0.897
913313,54.61,0.06,11.56,6.67,0.051,-0.957
913817,64.29,-0.82,9.04,6.52,-0.201,-0.957
914321,46.69,-2.57,9.98,6.81,0.228,-0.823
914825,61.65,0.06,11.72,6.63,0.125,-0.749
915328,51.09,0.06,9.35,6.59,0.051,-0.883
915831,50.21,0.06,9.35,6.57,0.051,-0.912
916335,51.09,0.06,9.51,6.59,0.021,-0.883
916839,50.21,0.06,9.51,6.59,0.036,-0.897
917343,49.33,0.06,9.04,6.57,0.051,-0.897
917847,46.69,0.06,9.67,6.59,0.065,-0.912
918349,50.21,0.06,9.04,6.57,0.065,-0.868
918853,50.21,0.06,9.83,6.57,0.006,-0.971
919357,49.33,0.06,9.51,6.56,0.065,-0.912
919861,51.09,0.06,9.98,6.56,0.006,-0.897
920365,49.33,0.06,9.19,6.56,0.006,-0.912
920868,41.41,-1.70,12.51,6.59,-0.024,-0.853
921372,50.21,0.06,9.19,6.54,0.006,-0.868
921875,50.21,0.06,8.88,6.54,0.021,-0.897
922379,50.21,0.06,9.04,6.54,0.021,-0.912
922883,49.33,0.06,9.67,6.56,0.006,-0.897
923386,49.33,0.06,9.35,6.54,0.021,-0.868
923890,51.09,0.06,8.56,6.54,0.006,-0.883
924394,51.09,0.06,9.35,6.54,0.006,-0.883
924897,51.09,0.06,9.04,6.54,0.036,-0.897
925401,46.69,0.06,10.30,6.59,-0.009,-0.868
925904,66.05,5.34,7.78,6.43,0.317,-0.957
926408,67.81,-0.82,11.09,6.43,0.199,-0.853
926912,44.93,-2.57,11.40,6.41,-0.275,-1.016
927416,46.69,-1.70,8.41,6.52,0.051,-0.853
927920,49.33,0.06,8.56,6.46,0.362,-1.060
928423,50.21,0.06,9.35,6.50,0.021,-0.868
928926,49.33,-0.82,9.04,6.50,0.006,-0.868
929430,50.21,-0.82,8.56,6.50,0.021,-0.897
929934,50.21,-0.82,9.35,6.50,0.006,-0.883
930438,51.09,-0.82,8.56,6.48,-0.009,-0.868
930941,49.33,0.06,9.19,6.48,0.021,-0.853
931445,49.33,-0.82,8.88,6.48,0.006,-0.868
931949,50.21,-0.82,8.72,6.48,0.036,-0.897
932452,47.57,0.06,9.35,6.48,-0.024,-0.883
932956,61.65,-1.70,7.30,6.41,-0.083,-0.853
933459,46.69,0.06,9.83,6.48,-0.024,-0.838
933963,49.33,0.06,9.19,6.46,-0.038,-0.897
934467,49.33,0.06,8.56,6.45,-0.038,-0.912
934971,46.69,-0.82,9.04,6.46,-0.038,-0.927
935474,50.21,-0.82,8.56,6.46,-0.024,-0.912
935977,51.09,-0.82,9.04,6.46,0.036,-0.912
936481,49.33,-0.82,9.83,6.46,0.095,-0.897
936985,46.69,-0.82,9.04,6.45,0.051,-0.912
937489,49.33,-0.82,9.19,6.43,0.006,-0.927
937993,46.69,-0.82,8.56,6.45,-0.009,-0.912
938497,50.21,-0.82,9.19,6.45,0.051,-0.897
938999,49.33,-0.82,8.72,6.43,0.051,-0.897
939503,50.21,-0.82,8.88,6.43,0.051,-0.897
940007,50.21,-0.82,9.04,6.43,0.051,-0.942
940511,49.33,-0.82,9.83,6.45,-0.024,-0.942
941015,51.09,-0.82,9.19,6.41,-0.053,-0.912
941518,51.09,-1.70,8.72,6.43,-0.038,-0.912
942022,51.09,-1.70,9.67,6.43,0.006,-0.912
942525,49.33,-1.70,8.09,6.41,0.065,-0.912
943029,51.09,-1.70,9.04,6.39,0.036,-0.897
943533,52.85,-1.70,11.56,6.46,0.095,-0.957
944036,25.58,0.06,9.35,6.37,-0.394,-0.749
944540,46.69,-5.21,10.61,6.24,0.139,-1.045
945044,42.29,0.06,10.93,6.39,0.065,-0.838
945548,51.09,-1.70,10.30,6.41,-0.038,-0.927
946052,46.69,-1.70,8.56,6.39,-0.009,-0.957
946554,51.09,-1.70,10.30,6.39,-0.098,-0.927
947058,48.45,-1.70,8.56,6.37,-0.127,-0.912
947562,49.33,-1.70,9.04,6.39,-0.083,-0.927
948066,50.21,-0.82,9.35,6.37,-0.024,-0.897
948570,50.21,-1.70,8.56,6.37,0.036,-0.868
949073,50.21,-1.70,9.04,6.37,0.154,-0.883
949577,51.09,-1.70,9.04,6.37,0.154,-0.868
950081,49.33,-1.70,8.56,6.37,0.095,-0.897
950584,59.01,-3.45,7.93,6.28,0.139,-0.942
951088,51.09,-1.70,8.72,6.37,0.006,-0.912
951591,50.21,-1.70,8.88,6.37,0.021,-0.912
952095,50.21,-2.57,8.56,6.35,0.021,-0.868
952599,50.21,-2.57,9.35,6.34,0.051,-0.942
953103,50.21,-1.70,8.72,6.34,0.065,-0.897
953607,46.69,-2.57,9.51,6.34,0.051,-0.897
954109,49.33,-2.57,8.56,6.34,0.065,-0.927
954613,51.09,-2.57,9.19,6.34,0.095,-0.897
955117,51.09,-2.57,9.51,6.34,0.065,-0.927
955621,48.45,-2.57,8.72,6.34,0.036,-0.883
956125,51.09,-2.57,8.88,6.32,0.051,-0.897
956628,40.53,-2.57,7.78,6.28,-0.024,-0.838
957132,49.33,-3.45,9.04,6.32,0.006,-0.897
957635,50.21,-2.57,8.72,6.34,-0.009,-0.868
958139,50.21,-3.45,8.88,6.32,0.006,-0.912
958643,51.09,-2.57,8.72,6.32,0.051,-0.853
959147,50.21,-2.57,9.19,6.32,0.036,-0.883
959650,51.09,-3.45,8.56,6.30,0.006,-0.897
960154,50.21,-3.45,9.19,6.30,0.036,-0.897
960657,50.21,-3.45,9.19,6.30,0.080,-0.853
961161,43.17,-3.45,8.56,6.32,-0.142,-0.883
961665,65.17,-4.33,14.87,6.06,-0.038,-0.705
962168,57.25,-6.09,12.82,6.30,0.347,-0.927
962672,53.73,-2.57,8.72,6.13,-0.186,-0.853
963176,49.33,-4.33,8.72,6.10,0.199,-0.764
963680,51.09,-3.45,9.19,6.26,-0.009,-0.838
964184,49.33,-3.45,9.04,6.26,0.065,-0.897
964686,50.21,-3.45,8.72,6.26,0.006,-0.897
965190,50.21,-4.33,9.04,6.26,-0.009,-0.883
965694,50.21,-3.45,8.56,6.26,0.006,-0.912
966198,51.09,-4.33,8.56,6.24,-0.024,-0.897
966702,51.09,-4.33,9.19,6.24,0.065,-0.912
967205,51.09,-4.33,8.88,6.24,0.080,-0.912
967709,51.09,-4.33,8.88,6.24,0.065,-0.868
968212,50.21,-4.33,8.56,6.23,0.036,-0.897
968716,51.09,-4.33,9.04,6.23,0.021,-0.868
969220,51.09,-4.33,8.56,6.23,0.065,-0.897
969723,49.33,-4.33,9.04,6.23,0.051,-0.868
970227,51.09,-4.33,8.41,6.23,0.051,-0.912
970731,51.09,-4.33,8.25,6.23,0.110,-0.883
971235,50.21,-4.33,8.72,6.23,0.051,-0.868
971738,50.21,-4.33,8.41,6.23,-0.038,-0.883
972241,50.21,-4.33,8.88,6.21,0.006,-0.868
972745,50.21,-4.33,8.41,6.21,0.021,-0.868
973249,50.21,-4.33,9.19,6.21,0.051,-0.897
973753,46.69,-4.33,8.41,6.21,-0.009,-0.883
974257,49.33,-3.45,8.88,6.19,-0.009,-0.912
974760,50.21,-4.33,8.88,6.19,0.006,-0.897
975263,54.61,-4.33,7.62,6.30,-0.009,-0.868
975767,66.05,-3.45,10.46,6.10,0.273,-1.016
976271,22.94,-5.21,9.83,6.06,-0.305,-0.868
976775,61.65,-2.57,13.45,6.13,-0.127,-1.075
977278,50.21,-4.33,8.09,6.17,0.006,-0.868
977782,51.09,-4.33,9.04,6.17,-0.009,-0.897
978286,51.09,-4.33,8.25,6.17,0.021,-0.868
978789,51.09,-4.33,8.41,6.17,0.036,-0.897
979293,50.21,-4.33,8.25,6.17,-0.024,-0.912
979796,51.09,-4.33,8.88,6.15,-0.024,-0.912
980300,50.21,-4.33,6.51,6.23,-0.261,-1.105
980804,47.57,-5.21,9.04,6.15,-0.009,-0.883
981308,50.21,-5.21,7.78,6.13,0.036,-0.897
981812,48.45,-4.33,8.25,6.13,-0.038,-0.868
982315,49.33,-4.33,7.78,6.13,0.036,-0.897
982818,50.21,-4.33,7.78,6.13,0.036,-0.897
983322,51.09,-5.21,7.93,6.13,0.051,-0.868
983826,50.21,-5.21,8.56,6.13,0.021,-0.868
984330,49.33,-5.21,7.30,6.12,0.006,-0.927
984834,50.21,-5.21,7.78,6.12,0.006,-0.868
985337,49.33,-5.21,8.09,6.12,0.036,-0.897
985840,49.33,-6.09,7.93,6.12,0.006,-0.897
986344,40.53,-7.85,8.72,6.06,-0.157,-0.912
986848,50.21,-6.09,9.04,6.12,0.021,-0.883
987352,51.09,-6.09,7.78,6.10,0.006,-0.897
987855,50.21,-6.09,8.56,6.10,0.080,-0.897
988359,49.33,-6.09,8.25,6.10,0.065,-0.897
988862,49.33,-6.09,8.25,6.12,0.065,-0.897
989366,44.93,-6.09,10.77,6.06,0.125,-1.016
989870,25.58,-11.37,9.67,6.08,0.065,-1.016
990373,39.65,-8.73,7.62,6.01,-0.305,-0.794
990877,50.21,-9.61,8.25,5.91,-0.216,-0.794
991381,51.09,-6.09,8.88,6.08,0.051,-0.912
991885,50.21,-6.09,7.78,6.06,0.051,-0.883
992389,63.41,-7.85,9.19,6.02,0.095,-0.897
992891,50.21,-6.09,8.41,6.06,0.065,-0.868
993395,51.09,-6.09,7.46,6.06,0.095,-0.912
993899,50.21,-6.09,7.93,6.06,-0.009,-0.912
994403,50.21,-6.09,8.56,6.06,0.006,-0.912
994907,49.33,-6.09,7.93,6.04,0.080,-0.942
995410,50.21,-6.09,8.25,6.04,0.021,-0.897
995913,49.33,-6.09,8.25,6.04,0.110,-0.897
996417,51.09,-6.09,8.09,6.04,0.021,-0.897
996921,51.09,-6.09,7.30,6.04,0.051,-0.883
997425,50.21,-6.09,8.09,6.02,0.006,-0.853
997928,51.09,-6.09,7.93,6.02,-0.009,-0.868
998432,54.61,-6.09,7.30,6.01,-0.083,-0.897
998935,48.45,-6.09,8.41,6.02,0.080,-0.912
999439,49.33,-6.09,8.25,6.02,0.036,-0.868
999943,49.33,-6.09,8.25,6.02,0.036,-0.912
1000446,51.09,-6.09,7.78,6.02,0.021,-0.897
1000950,51.09,-6.09,8.56,6.01,-0.053,-0.868
1001454,50.21,-6.09,7.78,6.01,0.006,-0.912
1001958,48.45,-6.09,7.78,6.01,0.006,-0.883
1002461,51.09,-6.09,7.93,6.01,-0.038,-0.897
1002964,51.09,-6.09,8.56,5.99,-0.053,-0.838
1003468,48.45,-6.09,8.09,6.01,0.006,-0.927
1003972,51.09,-6.09,7.78,6.01,0.006,-0.883
1004476,50.21,-6.97,7.78,5.99,-0.009,-0.912
1004980,48.45,-6.97,8.88,5.99,0.021,-0.883
1005484,49.33,-6.97,10.30,5.99,0.036,-0.912
1005987,49.33,-6.97,8.09,5.97,0.036,-0.883
1006491,51.09,-6.97,7.78,5.99,0.036,-0.897
1006995,46.69,-6.97,7.93,5.97,0.021,-0.868
1007498,53.73,-6.97,4.94,6.04,-0.024,-0.927
1008002,61.65,-7.85,8.09,5.91,-0.098,-0.675
1008505,74.84,-7.85,10.93,5.90,-0.394,-0.646
1009009,38.77,-1.70,7.46,5.77,-0.186,-0.927
1009513,50.21,-6.09,11.09,5.97,0.110,-0.853
1010017,49.33,-6.09,10.93,5.90,0.006,-0.927
1010521,48.45,-6.97,8.09,5.95,0.095,-0.868
1011024,51.09,-7.85,7.78,5.95,0.006,-0.883
1011528,51.09,-6.97,8.09,5.93,0.021,-0.912
1012032,49.33,-7.85,7.93,5.93,0.065,-0.897
1012535,50.21,-6.97,7.93,5.93,-0.009,-0.883
1013039,51.09,-6.97,7.78,5.93,-0.024,-0.897
1013542,49.33,-7.85,7.93,5.93,-0.009,-0.942
1014046,50.21,-6.97,8.56,5.91,-0.038,-0.897
1014550,51.09,-6.97,8.09,5.91,-0.024,-0.912
1015054,49.33,-6.97,8.09,5.91,0.006,-0.927
1015558,51.09,-7.85,7.78,5.91,0.006,-0.927
1016061,50.21,-6.97,7.93,5.91,0.051,-0.883
1016565,51.09,-7.85,7.78,5.90,0.065,-0.912
1017069,51.09,-7.85,7.78,5.90,-0.038,-0.927
1017572,51.09,-7.85,8.09,5.90,0.006,-0.927
1018076,49.33,-7.85,8.09,5.88,0.021,-0.897
1018579,49.33,-7.85,8.25,5.90,0.021,-0.883
1019083,50.21,-7.85,8.09,5.90,0.036,-0.868
1019587,51.09,-7.85,7.78,5.88,-0.009,-0.897
1020091,49.33,-7.85,7.78,5.90,-0.068,-0.897
1020595,50.21,-7.85,8.09,5.88,0.021,-0.897
1021099,49.33,-7.85,8.09,5.88,0.036,-0.853
1021602,50.21,-7.85,6.20,5.88,-0.024,-0.912
1022105,51.09,-7.85,7.93,5.86,0.036,-0.883
1022609,50.21,-7.85,7.78,5.88,0.021,-0.868
1023113,49.33,-8.73,8.09,5.86,0.021,-0.912
1023617,49.33,-8.73,7.93,5.86,0.065,-0.883
1024120,49.33,-8.73,8.41,5.86,-0.009,-0.868
1024624,49.33,-8.73,8.72,5.79,0.228,-0.809
1025128,41.41,-6.97,9.67,5.60,-0.216,-1.016
1025632,54.61,-17.53,9.35,5.95,-0.083,-0.557
1026136,36.13,-4.33,11.40,5.82,-0.053,-1.016
1026639,49.33,-8.73,11.24,5.80,0.273,-0.838
1027143,49.33,-8.73,8.56,5.84,-0.009,-0.883
1027646,49.33,-6.97,6.20,5.73,-0.038,-0.853
1028150,48.45,-8.73,8.09,5.82,-0.024,-0.927
1028654,51.09,-8.73,8.09,5.82,0.065,-0.897
1029157,51.09,-8.73,7.93,5.82,0.065,-0.897
1029661,51.09,-9.61,7.46,5.82,0.051,-0.897
1030165,49.33,-8.73,9.19,5.82,0.006,-0.883
1030669,49.33,-8.73,8.25,5.80,-0.024,-0.883
1031173,51.09,-9.61,8.09,5.80,0.036,-0.897
1031676,50.21,-9.61,7.78,5.80,0.006,-0.927
1032179,49.33,-9.61,8.09,5.80,0.021,-0.897
1032683,51.09,-8.73,8.09,5.80,0.021,-0.927
1033187,54.61,-6.97,6.04,5.71,0.095,-0.927
1033691,48.45,-9.61,7.78,5.80,-0.009,-0.912
1034194,49.33,-9.61,7.30,5.80,0.006,-0.912
1034698,48.45,-8.73,7.78,5.79,-0.009,-0.912
1035202,51.09,-9.61,7.46,5.79,0.021,-0.883
1035706,50.21,-8.73,7.93,5.79,0.036,-0.912
1036210,51.09,-9.61,7.46,5.79,-0.009,-0.912
1036712,51.09,-9.61,7.46,5.77,-0.024,-0.883
1037216,49.33,-9.61,7.15,5.75,0.065,-0.897
1037720,51.09,-9.61,8.09,5.77,0.110,-0.883
1038224,49.33,-9.61,7.93,5.77,0.051,-0.883
1038728,50.21,-9.61,7.78,5.77,0.051,-0.897
1039232,50.21,-9.61,7.62,5.77,0.036,-0.912
1039735,50.21,-9.61,6.83,5.77,0.006,-0.897
1040239,51.09,-9.61,8.25,5.75,0.006,-0.897
1040743,51.09,-9.61,8.56,5.75,0.006,-0.883
1041247,50.21,-9.61,7.62,5.75,0.036,-0.868
1041750,50.21,-9.61,7.15,5.75,0.065,-0.853
1042253,51.09,-9.61,8.56,5.73,-0.024,-0.897
1042757,50.21,-9.61,8.25,5.73,0.006,-0.912
1043261,44.93,-10.49,11.24,5.62,-0.305,-1.105
1043765,44.93,-12.25,11.09,5.62,-0.172,-0.809
1044269,53.73,-9.61,9.83,5.55,-0.305,-0.497
1044772,53.73,-0.82,11.56,5.31,0.110,-0.986
1045276,48.45,-11.37,6.67,5.71,0.110,-1.001
1045780,49.33,-9.61,7.93,5.69,0.065,-0.927
1046284,48.45,-9.61,6.83,5.69,0.021,-0.912
1046788,51.09,-10.49,7.62,5.69,-0.009,-0.897
1047291,50.21,-10.49,8.09,5.71,0.036,-0.912
1047795,51.09,-9.61,7.78,5.69,0.051,-0.897
1048298,50.21,-10.49,7.78,5.69,0.006,-0.897
1048802,51.09,-10.49,8.25,5.69,-0.038,-0.912
1049306,48.45,-10.49,8.09,5.68,0.006,-0.897
1049809,50.21,-10.49,8.09,5.68,0.006,-0.883
1050313,50.21,-10.49,8.25,5.69,-0.024,-0.912
1050817,49.33,-10.49,7.78,5.68,0.006,-0.897
1051321,51.09,-9.61,7.46,5.66,0.021,-0.897
1051825,49.33,-10.49,7.93,5.64,0.065,-0.897
1052328,50.21,-10.49,7.78,5.66,0.110,-0.897
1052832,50.21,-10.49,7.93,5.66,0.036,-0.927
1053336,50.21,-10.49,8.09,5.64,0.036,-0.957
1053840,50.21,-10.49,7.15,5.66,0.051,-0.912
1054344,51.09,-10.49,8.25,5.64,0.021,-0.897
1054848,49.33,-10.49,7.93,5.64,-0.038,-0.912
1055351,48.45,-10.49,7.78,5.64,-0.068,-0.883
1055855,49.33,-10.49,7.46,5.64,-0.009,-0.912
1056359,49.33,-11.37,8.41,5.64,-0.009,-0.912
1056862,51.09,-10.49,7.78,5.62,0.021,-0.853
1057366,50.21,-10.49,7.62,5.62,0.006,-0.883
1057869,48.45,-11.37,8.25,5.62,0.036,-0.897
1058373,51.09,-10.49,7.15,5.64,0.065,-0.883
1058877,51.09,-10.49,8.25,5.62,0.021,-0.883
1059381,51.09,-10.49,7.62,5.62,-0.024,-0.897
1059885,49.33,-11.37,7.93,5.62,0.006,-0.927
1060388,50.21,-11.37,7.30,5.62,0.036,-0.868
1060892,48.45,-11.37,7.93,5.60,-0.009,-0.868
1061396,49.33,-11.37,7.93,5.60,-0.038,-0.912
1061900,49.33,-11.37,7.15,5.60,-0.068,-0.853
1062404,54.61,-12.25,9.51,5.51,0.228,-1.075
1062907,41.41,-14.89,6.20,5.66,-0.038,-1.327
1063411,41.41,-15.77,7.78,5.42,-0.068,-0.646
1063915,42.29,-13.13,8.41,5.58,0.332,-1.016
1064419,48.45,-6.97,11.09,5.53,0.317,-1.120
1064923,49.33,-11.37,7.93,5.58,0.213,-0.838
1065426,49.33,-11.37,7.78,5.57,0.051,-0.897
1065930,51.09,-11.37,7.46,5.57,0.036,-0.942
1066433,48.45,-11.37,7.46,5.57,0.006,-0.868
1066937,49.33,-11.37,7.46,5.57,-0.024,-0.897
1067441,46.69,-14.01,6.04,5.49,-0.083,-0.986
1067944,48.45,-11.37,7.93,5.55,0.021,-0.897
1068448,48.45,-11.37,7.30,5.55,0.065,-0.927
1068952,51.09,-11.37,7.62,5.55,0.021,-0.897
1069456,51.09,-11.37,7.30,5.55,0.051,-0.897
1069960,50.21,-11.37,7.15,5.55,0.080,-0.897
1070464,49.33,-11.37,7.78,5.53,0.065,-0.883
1070967,50.21,-11.37,7.62,5.55,-0.009,-0.897
1071471,51.09,-11.37,8.25,5.53,0.051,-0.897
1071975,50.21,-11.37,7.78,5.53,0.021,-0.897
1072479,50.21,-11.37,7.78,5.51,-0.009,-0.927
1072983,51.09,-11.37,7.93,5.51,-0.009,-0.897
1073486,51.09,-11.37,7.93,5.53,0.021,-0.912
1073990,51.09,-11.37,7.62,5.51,-0.024,-0.942
1074494,48.45,-11.37,7.30,5.51,-0.038,-0.897
1074997,50.21,-11.37,7.46,5.49,-0.009,-0.912
1075501,49.33,-12.25,7.46,5.49,0.051,-0.883
1076004,49.33,-11.37,7.30,5.51,0.051,-0.897
1076508,51.09,-11.37,7.46,5.51,0.036,-0.927
1077012,46.69,-11.37,7.62,5.49,0.184,-0.897
1077516,48.45,-11.37,7.30,5.49,0.051,-0.912
1078020,50.21,-11.37,7.15,5.49,0.065,-0.927
1078523,50.21,-11.37,7.30,5.49,0.095,-0.897
1079027,51.09,-12.25,7.62,5.49,0.065,-0.883
1079531,50.21,-11.37,7.62,5.47,0.006,-0.883
1080035,51.09,-12.25,7.62,5.46,0.006,-0.883
1080539,49.33,-12.25,5.73,5.47,0.036,-0.942
1081042,44.93,-12.25,5.41,5.53,0.125,-1.031
1081546,32.62,-2.57,11.09,5.40,-0.290,-0.883
1082050,51.97,-10.49,9.19,5.40,-0.261,-1.223
1082554,49.33,-12.25,4.31,5.36,0.139,-0.601
1083058,49.33,-12.25,7.46,5.46,-0.024,-0.838
1083561,50.21,-12.25,7.78,5.46,0.006,-0.912
1084064,50.21,-12.25,7.15,5.46,0.036,-0.912
1084568,63.41,-10.49,7.78,5.44,-0.038,-0.868
1085072,49.33,-12.25,7.46,5.44,0.021,-0.883
1085576,51.09,-12.25,7.15,5.44,0.065,-0.912
1086080,46.69,-12.25,8.09,5.44,0.036,-0.883
1086583,50.21,-12.25,7.15,5.46,0.006,-0.897
1087087,46.69,-12.25,7.15,5.44,0.036,-0.912
1087591,46.69,-12.25,7.15,5.44,0.095,-0.927
1088095,50.21,-12.25,6.83,5.40,0.036,-0.853
1088599,51.09,-12.25,7.78,5.42,-0.024,-0.868
1089102,49.33,-12.25,7.30,5.42,-0.024,-0.897
1089606,49.33,-12.25,7.15,5.42,-0.009,-0.853
1090110,51.09,-12.25,7.93,5.40,0.021,-0.897
1090614,50.21,-12.25,7.30,5.40,0.110,-0.868
1091118,46.69,-12.25,7.93,5.42,0.065,-0.883
1091621,51.09,-12.25,7.15,5.40,-0.053,-0.912
1092125,50.21,-13.13,7.15,5.42,-0.038,-0.868
1092628,49.33,-13.13,7.30,5.40,-0.024,-0.927
1093132,51.09,-12.25,6.99,5.40,0.006,-0.883
1093636,51.09,-12.25,7.30,5.38,0.021,-0.897
1094139,49.33,-12.25,6.51,5.38,-0.038,-0.897
1094643,49.33,-12.25,7.46,5.38,-0.068,-0.912
1095147,51.09,-12.25,7.62,5.38,0.006,-0.912
1095651,44.93,-13.13,8.56,5.36,0.021,-0.912
1096155,61.65,-11.37,11.09,5.57,0.065,-1.031
1096658,43.17,-15.77,13.61,5.31,0.139,-1.031
1097162,58.13,-15.77,9.51,5.29,0.021,-0.942
1097666,51.97,-8.73,7.78,5.29,-0.142,-0.764
1098170,49.33,-12.25,6.99,5.31,-0.009,-1.120
1098674,49.33,-12.25,7.30,5.36,0.036,-0.912
1099177,51.09,-13.13,7.15,5.35,0.065,-0.897
1099681,51.09,-13.13,7.15,5.35,0.095,-0.897
1100185,49.33,-13.13,7.30,5.35,0.021,-0.897
1100689,51.09,-13.13,7.15,5.33,-0.083,-0.883
1101193,51.09,-13.13,6.99,5.33,0.006,-0.897
1101697,41.41,-15.77,6.20,5.35,0.006,-0.957
1102199,51.09,-13.13,6.99,5.35,0.065,-0.912
1102703,50.21,-13.13,7.15,5.35,0.139,-0.883
1103207,50.21,-13.13,7.30,5.33,-0.024,-0.897
1103711,49.33,-14.01,7.15,5.35,-0.038,-0.927
1104215,51.09,-14.01,6.83,5.33,0.036,-0.912
1104718,51.09,-14.01,7.15,5.35,0.006,-0.897
1105222,49.33,-14.01,7.46,5.33,-0.009,-0.927
1105726,51.09,-14.01,6.99,5.31,0.065,-0.883
1106230,50.21,-14.01,7.62,5.31,0.006,-0.897
1106734,46.69,-14.01,6.99,5.29,-0.009,-0.927
1107237,51.09,-14.01,7.93,5.29,0.362,-0.809
1107741,51.09,-14.89,6.99,5.29,0.036,-0.912
1108245,49.33,-14.01,7.62,5.29,0.021,-0.897
1108749,50.21,-14.01,7.62,5.29,-0.038,-0.883
1109253,46.69,-14.01,6.51,5.29,-0.009,-0.883
1109756,51.09,-14.01,6.83,5.29,0.021,-0.868
1110260,51.09,-14.01,6.83,5.29,-0.009,-0.927
1110763,49.33,-14.01,7.30,5.27,-0.009,-0.883
1111267,51.09,-14.01,7.15,5.27,0.006,-0.912
1111771,51.09,-14.01,7.15,5.27,-0.024,-0.883
1112274,51.09,-14.01,8.09,5.27,-0.024,-0.883
1112778,49.33,-14.01,7.30,5.27,-0.024,-0.912
1113282,49.33,-14.01,7.15,5.18,-0.112,-0.957
1113786,57.25,-14.89,8.88,5.16,0.006,-0.764
1114290,25.58,-11.37,10.46,5.42,0.110,-0.957
1114793,51.09,-18.41,8.09,5.33,-0.053,-1.060
1115297,50.21,-14.01,6.99,5.27,0.362,-0.483
1115801,51.09,-14.01,6.51,5.25,0.125,-0.942
1116305,51.09,-14.01,7.46,5.24,0.065,-0.853
1116809,49.33,-14.01,6.83,5.24,0.065,-0.823
1117313,49.33,-14.01,6.83,5.24,0.021,-0.897
1117816,48.45,-14.01,6.83,5.25,-0.038,-0.897
1118320,50.21,-14.01,6.83,5.24,-0.068,-0.942
1118824,47.57,-15.77,6.99,5.14,-0.053,-0.883
1119328,49.33,-14.89,6.83,5.22,-0.038,-0.883
1119832,51.09,-14.89,7.15,5.25,-0.024,-0.897
1120334,49.33,-14.89,7.78,5.22,0.065,-0.897
1120838,51.09,-14.89,7.15,5.22,0.095,-0.868
1121342,51.09,-14.89,7.15,5.22,0.065,-0.897
1121846,49.33,-15.77,6.83,5.22,0.036,-0.912
1122350,49.33,-15.77,6.99,5.22,-0.009,-0.927
1122853,49.33,-14.89,7.30,5.20,0.006,-0.927
1123357,48.45,-15.77,7.15,5.22,-0.009,-0.986
1123861,50.21,-15.77,6.67,5.20,0.065,-0.942
1124365,41.41,-15.77,7.62,5.18,0.036,-0.957
1124869,50.21,-15.77,6.99,5.18,0.051,-0.883
1125372,51.09,-15.77,7.46,5.18,-0.024,-0.912
1125876,51.09,-15.77,6.83,5.18,-0.038,-0.897
1126380,48.45,-14.89,7.30,5.18,0.006,-0.912
1126884,51.09,-15.77,6.51,5.20,0.051,-0.897
1127388,50.21,-14.89,6.99,5.18,0.036,-0.897
1127891,49.33,-14.89,7.15,5.18,0.006,-0.897
1128394,48.45,-15.77,6.83,5.18,-0.024,-0.912
1128898,48.45,-14.89,6.99,5.16,0.095,-0.868
1129402,46.69,-14.89,7.30,5.18,0.080,-0.853
1129906,51.09,-14.89,7.46,5.18,-0.024,-0.868
1130409,51.09,-14.89,6.99,5.16,-0.024,-0.897
1130913,50.21,-14.89,7.15,5.18,0.095,-0.912
1131417,49.33,-14.89,6.83,5.16,0.154,-0.912
1131921,51.09,-14.89,7.15,5.16,-0.009,-0.912
1132425,51.09,-14.89,7.30,5.16,-0.024,-0.927
1132929,47.57,-14.89,8.72,5.24,0.095,-0.957
1133432,32.62,-13.13,9.19,5.03,0.006,-0.705
1133936,51.97,-15.77,8.09,5.09,-0.275,-0.749
1134440,46.69,-14.89,6.36,5.24,-0.127,-0.646
1134944,51.09,-14.89,6.83,5.14,0.139,-0.883
1135448,46.69,-14.01,6.83,5.13,-0.024,-0.897
1135951,54.61,-15.77,8.41,5.09,-0.098,-0.883
1136455,51.09,-14.89,6.99,5.13,-0.038,-0.897
1136959,50.21,-14.89,6.83,5.13,0.080,-0.897
1137462,50.21,-14.89,6.83,5.13,0.080,-0.927
1137966,51.09,-14.89,7.15,5.13,0.051,-0.912
1138469,50.21,-14.89,6.83,5.11,0.080,-0.897
1138973,49.33,-15.77,6.99,5.13,-0.009,-0.883
1139477,51.09,-14.89,7.15,5.11,-0.024,-0.927
1139981,46.69,-14.89,6.99,5.09,0.021,-0.897
1140485,49.33,-15.77,6.83,5.11,-0.009,-0.927
1140988,49.33,-14.89,6.99,5.09,0.036,-0.897
1141492,42.29,-16.65,7.30,4.96,-0.157,-0.883
1141996,51.09,-15.77,6.83,5.09,-0.009,-0.883
1142500,49.33,-14.89,6.83,5.09,0.006,-0.883
1143004,48.45,-14.89,6.83,5.09,0.006,-0.897
1143507,51.09,-15.77,7.46,5.07,0.006,-0.868
1144011,50.21,-14.89,6.99,5.07,-0.009,-0.883
1144515,49.33,-15.77,6.99,5.09,0.021,-0.868
1145019,44.93,-15.77,7.46,5.14,0.199,-0.868
1145522,50.21,-7.85,9.04,5.14,-0.320,-0.927
1146025,51.09,-14.01,5.88,4.85,0.139,-1.105
1146529,50.21,-15.77,5.88,5.09,0.154,-0.986
1147033,57.25,-14.01,7.46,5.05,-0.305,-1.031
1147537,49.33,-15.77,6.83,5.05,-0.024,-0.868
1148041,51.09,-15.77,6.83,5.05,0.051,-0.912
1148545,51.09,-15.77,6.83,5.05,0.036,-0.897
1149048,46.69,-15.77,7.15,5.07,0.036,-0.897
1149552,46.69,-15.77,7.30,5.07,0.021,-0.897
1150056,49.33,-16.65,6.67,5.05,-0.009,-0.912
1150560,49.33,-16.65,6.99,5.05,0.051,-0.912
1151064,49.33,-16.65,7.15,5.05,0.065,-0.897
1151567,49.33,-16.65,7.62,5.03,0.051,-0.883
1152071,46.69,-15.77,6.83,5.05,0.021,-0.912
1152575,51.09,-16.65,6.99,5.03,0.006,-0.897
1153079,48.45,-16.65,6.51,5.03,-0.038,-0.927
1153582,49.33,-16.65,7.15,5.03,-0.009,-0.897
1154085,49.33,-16.65,6.83,5.02,-0.009,-0.942
1154589,51.09,-16.65,7.15,5.02,0.021,-0.912
1155093,50.21,-16.65,7.15,5.02,0.051,-0.912
1155597,49.33,-16.65,7.15,5.03,-0.024,-0.927
1156101,51.09,-16.65,7.30,5.02,-0.038,-0.942
1156604,51.09,-16.65,6.83,4.98,-0.053,-0.942
1157108,48.45,-16.65,6.51,5.02,0.036,-0.927
1157612,49.33,-16.65,6.67,5.00,0.080,-0.883
1158116,51.09,-16.65,7.15,5.00,0.051,-0.883
1158620,49.33,-16.65,7.15,5.00,0.021,-0.927
1159123,50.21,-16.65,6.36,5.00,0.080,-0.897
1159627,49.33,-16.65,7.15,4.98,0.065,-0.838
1160131,50.21,-16.65,6.67,5.00,-0.024,-0.868
1160635,50.21,-17.53,6.67,4.98,-0.053,-0.927
1161139,49.33,-17.53,6.99,5.00,0.006,-0.883
1161641,50.21,-17.53,6.67,4.96,-0.068,-0.912
1162145,51.09,-17.53,7.46,4.98,-0.009,-0.897
1162649,50.21,-17.53,6.67,4.98,0.036,-0.883
1163153,54.61,-17.53,9.67,4.92,-0.038,-0.868
1163657,41.41,-16.65,9.04,5.16,0.421,-1.001
1164161,51.09,-17.53,8.25,5.05,0.006,-0.853
1164664,46.69,-17.53,6.99,4.85,0.021,-1.031
1165168,49.33,-17.53,6.99,4.96,0.110,-0.838
1165672,51.09,-17.53,7.30,4.96,0.036,-0.883
1166176,50.21,-17.53,6.83,4.96,0.036,-0.897
1166680,49.33,-17.53,6.99,4.96,-0.024,-0.883
1167183,49.33,-17.53,7.46,4.94,0.065,-0.912
1167687,49.33,-17.53,6.83,4.94,0.065,-0.912
1168191,48.45,-17.53,6.83,4.96,0.006,-0.883
1168695,48.45,-17.53,6.51,4.94,-0.024,-0.897
1169199,50.21,-17.53,6.51,4.94,0.006,-0.883
1169702,51.09,-17.53,6.99,4.92,0.065,-0.823
1170206,51.09,-18.41,6.83,4.92,0.006,-0.883
1170709,51.09,-17.53,6.51,4.92,0.080,-0.897
1171213,51.09,-17.53,6.99,4.92,0.065,-0.868
1171717,48.45,-18.41,7.15,4.92,0.051,-0.912
1172220,51.09,-18.41,7.15,4.92,0.006,-0.927
1172724,46.69,-18.41,7.15,4.92,-0.009,-0.868
1173228,51.09,-18.41,7.15,4.91,0.021,-0.883
1173732,50.21,-18.41,6.36,4.91,-0.024,-0.897
1174236,50.21,-18.41,6.99,4.91,-0.009,-0.853
1174739,49.33,-18.41,6.99,4.91,0.036,-0.912
1175243,51.09,-18.41,6.99,4.91,0.051,-0.897
1175747,49.33,-18.41,7.30,4.89,0.021,-0.868
1176251,48.45,-18.41,6.51,4.89,-0.009,-0.912
1176755,49.33,-18.41,7.78,4.89,-0.009,-0.912
1177259,48.45,-18.41,6.36,4.91,0.006,-0.897
1177762,51.09,-18.41,6.83,4.89,0.006,-0.912
1178266,48.45,-18.41,6.36,4.89,-0.038,-0.897
1178770,49.33,-18.41,6.83,4.89,-0.038,-0.912
1179274,51.09,-18.41,6.83,4.87,-0.038,-0.912
1179777,51.09,-17.53,6.67,4.87,0.021,-0.883
1180280,49.33,-18.41,6.67,4.87,0.065,-0.912
1180784,49.33,-18.41,7.15,4.87,-0.009,-0.912
1181288,51.09,-18.41,7.15,4.87,0.051,-0.912
1181792,54.61,-18.41,8.41,4.80,0.347,-0.986
1182296,39.65,-18.41,8.72,4.52,-0.231,-0.690
1182799,69.57,-6.09,8.56,4.91,-0.394,-0.868
1183303,66.93,-15.77,8.88,4.80,0.139,-0.986
1183807,49.33,-18.41,5.73,4.81,-0.394,-1.001
1184311,48.45,-18.41,6.51,4.85,-0.009,-0.883
1184815,49.33,-18.41,6.67,4.85,0.021,-0.868
1185318,49.33,-18.41,6.99,4.83,0.021,-0.897
1185822,51.09,-18.41,6.83,4.83,0.021,-0.838
1186326,48.45,-18.41,6.51,4.83,0.006,-0.868
1186830,44.93,-21.05,6.67,4.85,0.021,-0.868
1187334,50.21,-18.41,7.15,4.83,0.006,-0.853
1187837,48.45,-18.41,6.67,4.83,-0.009,-0.897
1188340,49.33,-18.41,6.99,4.83,0.006,-0.912
1188844,48.45,-18.41,6.36,4.81,0.006,-0.883
1189348,51.09,-18.41,6.67,4.83,-0.009,-0.853
1189852,51.09,-18.41,6.83,4.81,0.006,-0.912
1190355,49.33,-19.29,6.99,4.81,0.065,-0.883
1190859,51.09,-18.41,6.67,4.83,0.006,-0.912
1191363,50.21,-18.41,6.51,4.83,-0.024,-0.897
1191867,48.45,-19.29,6.51,4.80,-0.009,-0.897
1192371,48.45,-18.41,6.20,4.78,-0.009,-0.883
1192875,49.33,-18.41,6.83,4.80,-0.009,-0.883
1193378,49.33,-19.29,6.51,4.80,0.036,-0.912
1193882,50.21,-18.41,6.67,4.80,0.021,-0.883
1194386,50.21,-18.41,6.99,4.80,0.021,-0.897
1194890,49.33,-18.41,6.99,4.80,0.021,-0.912
1195394,49.33,-19.29,6.83,4.78,0.036,-0.868
1195897,49.33,-19.29,6.99,4.78,0.051,-0.912
1196401,49.33,-19.29,6.51,4.78,0.065,-0.883
1196905,55.49,-19.29,6.51,4.70,0.006,-1.001
1197408,43.17,-15.77,8.25,4.78,0.006,-1.194
1197912,50.21,-25.45,5.57,4.70,0.080,-1.149
1198415,54.61,-16.65,8.09,4.67,-0.038,-1.001
1198919,51.09,-18.41,7.15,4.76,0.051,-0.927
1199423,46.69,-19.29,6.99,4.76,0.065,-0.897
1199927,51.09,-18.41,6.51,4.76,0.065,-0.883
1200431,49.33,-19.29,6.99,4.76,0.065,-0.897
1200934,51.09,-19.29,6.67,4.76,0.021,-0.897
1201438,51.09,-19.29,6.51,4.76,0.006,-0.883
1201942,49.33,-19.29,6.99,4.78,0.006,-0.868
1202446,47.57,-19.29,6.51,4.76,0.065,-0.868
1202950,49.33,-19.29,6.67,4.74,0.051,-0.897
1203453,51.09,-20.17,7.15,4.76,-0.009,-0.868
1203957,61.65,-18.41,5.25,4.65,-0.098,-0.853
1204461,49.33,-20.17,6.51,4.72,-0.024,-0.883
1204965,49.33,-20.17,6.99,4.76,-0.024,-0.912
1205469,48.45,-20.17,6.99,4.72,0.006,-0.912
1205971,49.33,-20.17,6.83,4.72,-0.009,-0.912
1206475,51.09,-20.17,6.83,4.70,0.051,-0.912
1206979,51.09,-20.17,6.99,4.72,0.051,-0.897
1207483,49.33,-20.17,6.36,4.74,0.036,-0.897
1207987,50.21,-20.17,6.20,4.72,0.021,-0.912
1208491,51.09,-20.17,6.67,4.70,-0.009,-0.912
1208994,51.09,-20.17,6.51,4.70,0.021,-0.912
1209498,51.09,-20.17,6.67,4.69,0.065,-0.883
1210002,49.33,-20.17,6.67,4.70,0.051,-0.883
1210506,49.33,-20.17,6.99,4.70,0.080,-0.883
1211010,54.61,-20.17,5.73,4.80,0.065,-1.045
1211513,32.62,-14.89,8.56,4.70,-0.112,-0.483
1212017,44.93,-20.17,5.57,4.74,0.006,-0.542
1212521,48.45,-20.17,3.05,4.69,0.065,-1.031
1213025,51.09,-20.17,6.67,4.69,0.051,-1.075
1213529,49.33,-20.17,7.15,4.69,0.065,-0.883
1214032,50.21,-20.17,6.36,4.69,0.065,-0.883
1214536,49.33,-20.17,6.36,4.69,-0.038,-0.883
1215039,49.33,-20.17,6.67,4.69,-0.053,-0.897
1215543,61.65,-18.41,5.25,4.69,0.006,-0.927
1216047,48.45,-20.17,6.67,4.67,0.051,-0.883
1216550,49.33,-20.17,7.15,4.67,0.065,-0.897
1217054,49.33,-20.17,6.83,4.69,0.006,-0.927
1217558,50.21,-20.17,6.83,4.67,-0.024,-0.912
1218062,51.09,-20.17,6.51,4.67,-0.009,-0.927
1218566,51.09,-20.17,6.99,4.67,0.036,-0.883
1219069,48.45,-20.17,6.51,4.67,0.021,-0.912
1219573,48.45,-20.17,6.20,4.65,0.006,-0.853
1220077,51.09,-20.17,6.20,4.70,0.036,-0.883
1220581,51.09,-20.17,6.36,4.65,0.006,-0.897
1221085,42.29,-18.41,6.36,4.59,0.080,-0.868
1221588,46.69,-20.17,6.67,4.65,-0.024,-0.912
1222092,50.21,-21.05,6.99,4.65,0.006,-0.897
1222596,50.21,-21.05,6.67,4.65,-0.024,-0.912
1223100,46.69,-21.05,6.51,4.63,0.021,-0.897
1223604,50.21,-21.05,6.20,4.63,0.006,-0.883
1224107,49.33,-21.93,6.36,4.63,-0.024,-0.883
1224610,49.33,-21.93,6.83,4.63,0.021,-0.883
1225114,49.33,-21.93,6.83,4.63,0.021,-0.883
1225618,51.09,-21.93,6.83,4.63,0.006,-0.912
1226122,51.09,-21.93,6.20,4.63,-0.009,-0.912
1226626,48.45,-21.93,7.15,4.63,0.021,-0.957
1227129,49.33,-22.81,6.67,4.61,0.139,-0.868
1227633,50.21,-21.93,6.51,4.61,0.036,-0.927
1228137,50.21,-21.93,7.78,4.63,-0.083,-0.912
1228641,49.33,-22.81,6.36,4.63,0.021,-0.912
1229145,51.09,-21.93,7.15,4.61,0.036,-0.912
1229648,44.93,-21.93,4.78,4.65,-0.024,-1.090
1230152,59.89,-23.69,7.78,4.58,0.125,-1.357
1230656,52.85,-17.53,11.88,4.96,-0.053,-0.971
1231160,49.33,-21.93,3.05,4.65,-0.009,-0.809
1231664,51.09,-22.81,6.83,4.59,0.006,-0.838
1232167,48.45,-21.93,7.30,4.59,0.006,-0.912
1232671,55.49,-19.29,6.83,4.48,-0.024,-0.971
1233175,51.09,-21.93,6.67,4.61,-0.009,-0.897
1233679,49.33,-22.81,7.15,4.59,0.006,-0.853
1234182,49.33,-22.81,7.15,4.61,-0.024,-0.883
1234685,49.33,-22.81,6.99,4.58,0.051,-0.853
1235189,49.33,-22.81,6.67,4.59,0.080,-0.868
1235693,51.09,-22.81,6.99,4.58,0.036,-0.838
1236197,49.33,-22.81,6.99,4.59,0.006,-0.883
1236701,46.69,-22.81,6.83,4.56,0.065,-0.897
1237204,49.33,-22.81,6.83,4.58,0.065,-0.883
1237708,48.45,-22.81,6.51,4.58,0.051,-0.897
1238212,41.41,-25.45,9.51,4.48,-0.083,-0.853
1238716,48.45,-22.81,6.83,4.56,0.006,-0.897
1239220,46.69,-22.81,6.51,4.56,0.051,-0.897
1239724,49.33,-22.81,6.83,4.56,0.065,-0.897
1240227,51.09,-22.81,6.83,4.54,0.065,-0.897
1240731,49.33,-22.81,6.67,4.56,0.036,-0.912
1241235,46.69,-22.81,7.30,4.56,-0.009,-0.942
1241739,46.69,-22.81,6.99,4.56,0.065,-0.927
1242243,48.45,-23.69,6.51,4.56,0.065,-0.912
1242746,48.45,-23.69,6.99,4.54,0.051,-0.927
1243250,48.45,-23.69,6.99,4.52,0.051,-0.897
1243753,46.69,-24.57,5.73,4.34,-0.142,-1.001
1244257,49.33,-23.69,6.67,4.54,-0.009,-0.883
1244761,48.45,-23.69,6.20,4.52,0.006,-0.897
1245264,48.45,-23.69,6.36,4.52,0.095,-0.927
1245768,49.33,-23.69,6.99,4.50,0.125,-0.912
1246272,49.33,-23.69,6.20,4.52,0.095,-0.897
1246776,46.69,-22.81,6.83,4.54,0.095,-0.927
1247280,50.21,-22.81,6.67,4.52,0.065,-0.912
1247783,50.21,-22.81,6.04,4.50,0.051,-0.897
1248287,44.93,-22.81,4.78,4.47,0.199,-0.971
1248791,56.37,-21.05,6.83,4.10,0.376,-1.031
1249295,52.85,-30.73,4.31,4.63,-0.068,-1.460
1249799,25.58,-24.57,9.51,4.30,0.065,-1.149
1250302,49.33,-22.81,6.51,4.48,0.036,-0.986
1250806,48.45,-23.69,6.99,4.48,-0.038,-0.912
1251310,49.33,-23.69,6.20,4.52,0.021,-0.912
1251814,49.33,-23.69,6.83,4.48,-0.009,-0.883
1252317,48.45,-23.69,6.99,4.48,0.006,-0.897
1252820,49.33,-23.69,6.04,4.48,0.080,-0.868
1253324,51.09,-23.69,6.67,4.48,0.125,-0.853
1253828,50.21,-23.69,6.36,4.50,0.169,-0.868
1254332,48.45,-24.57,6.20,4.48,0.006,-0.853
1254836,51.09,-23.69,6.67,4.48,-0.024,-0.897
1255340,41.41,-24.57,7.62,4.27,0.021,-0.971
1255843,46.69,-24.57,6.99,4.47,0.065,-0.912
1256347,49.33,-23.69,6.04,4.47,0.080,-0.897
1256851,47.57,-24.57,6.83,4.45,0.110,-0.883
1257355,49.33,-24.57,5.73,4.47,0.139,-0.868
1257859,49.33,-24.57,5.88,4.48,0.021,-0.897
1258362,49.33,-23.69,6.51,4.45,0.021,-0.897
1258866,51.09,-24.57,6.36,4.45,0.036,-0.883
1259370,48.45,-24.57,5.73,4.45,0.036,-0.897
1259874,48.45,-24.57,6.20,4.45,0.036,-0.912
1260378,51.09,-24.57,6.36,4.47,0.006,-0.897
1260881,40.53,-22.81,7.78,4.36,-0.186,-0.853
1261384,48.45,-25.45,6.04,4.45,0.021,-0.927
1261888,51.09,-25.45,5.73,4.43,0.051,-0.868
1262392,48.45,-26.33,6.99,4.43,0.021,-0.897
1262896,51.97,-25.45,9.51,4.45,-0.024,-0.809
1263399,67.81,-21.93,9.35,4.47,-0.275,-1.238
1263903,48.45,-26.33,6.99,4.28,0.258,-1.075
1264407,50.21,-26.33,4.31,4.36,0.199,-0.675
1264911,46.69,-26.33,6.67,4.41,0.376,-0.838
1265415,49.33,-26.33,6.67,4.41,0.169,-0.883
1265918,46.69,-25.45,6.04,4.41,-0.068,-0.883
1266422,46.69,-25.45,6.36,4.41,-0.053,-0.912
1266926,48.45,-25.45,5.73,4.28,0.036,-0.927
1267430,49.33,-25.45,6.67,4.41,0.036,-0.883
1267934,46.69,-25.45,6.83,4.41,0.036,-0.883
1268438,48.45,-25.45,7.62,4.41,0.065,-0.883
1268941,49.33,-25.45,6.99,4.41,0.125,-0.868
1269445,46.69,-25.45,7.15,4.39,0.051,-0.868
1269949,48.45,-25.45,6.20,4.41,0.051,-0.883
1270453,49.33,-26.33,6.20,4.41,0.051,-0.883
1270957,48.45,-26.33,6.04,4.41,0.065,-0.868
1271459,48.45,-25.45,5.88,4.41,0.080,-0.868
1271963,48.45,-26.33,7.15,4.41,0.110,-0.897
1272467,44.93,-25.45,6.99,4.36,0.051,-0.986
1272971,48.45,-25.45,6.36,4.38,0.051,-0.883
1273475,49.33,-26.33,6.51,4.39,0.080,-0.912
1273978,48.45,-26.33,6.20,4.38,0.110,-0.897
1274482,51.09,-26.33,6.51,4.39,0.139,-0.868
1274986,49.33,-26.33,6.51,4.38,0.110,-0.883
1275490,46.69,-25.45,6.67,4.38,0.080,-0.897
1275994,51.09,-26.33,6.36,4.39,0.051,-0.883
1276497,49.33,-26.33,6.36,4.38,0.051,-0.897
1277001,51.09,-26.33,6.36,4.36,0.036,-0.912
1277505,48.45,-26.33,6.20,4.38,0.051,-0.942
1278009,60.77,-25.45,8.25,4.25,-0.009,-0.927
1278513,49.33,-27.21,6.36,4.36,0.006,-0.912
1279016,49.33,-26.33,6.83,4.36,-0.009,-0.897
1279520,46.69,-27.21,6.51,4.36,-0.009,-0.912
1280024,50.21,-27.21,6.51,4.34,0.051,-0.912
1280528,48.45,-27.21,6.99,4.34,0.006,-0.897
1281032,49.33,-27.21,6.36,4.36,-0.038,-0.897
1281534,48.45,-27.21,6.67,4.34,-0.098,-0.927
1282038,44.93,-27.21,5.25,4.34,-0.186,-0.957
1282542,68.69,-36.01,4.31,4.43,0.199,-0.838
1283046,49.33,-21.05,9.51,4.39,-0.172,-1.179
1283550,49.33,-27.21,4.31,4.38,-0.275,-1.120
1284054,41.41,-27.21,7.15,4.25,0.228,-0.779
1284557,46.69,-26.33,6.51,4.34,0.125,-0.838
1285061,49.33,-27.21,6.20,4.32,0.110,-0.838
1285565,46.69,-27.21,6.67,4.32,0.006,-0.853
1286069,49.33,-27.21,6.51,4.32,-0.098,-0.868
1286573,48.45,-26.33,6.67,4.34,-0.024,-0.912
1287076,46.69,-26.33,6.20,4.34,0.139,-0.883
1287580,48.45,-26.33,6.36,4.32,0.139,-0.868
1288084,48.45,-26.33,6.67,4.32,0.110,-0.868
1288588,51.09,-27.21,6.20,4.32,0.169,-0.897
1289092,48.45,-26.33,6.36,4.30,0.021,-0.883
1289595,40.53,-28.09,4.94,4.28,-0.186,-0.853
1290099,48.45,-26.33,6.20,4.32,0.021,-0.912
1290603,49.33,-27.21,6.83,4.30,0.036,-0.883
1291107,51.09,-27.21,7.93,4.32,0.036,-0.883
1291610,51.09,-27.21,6.99,4.32,0.036,-0.912
1292113,50.21,-27.21,6.67,4.28,0.095,-0.897
1292617,48.45,-28.09,6.51,4.28,0.065,-0.897
1293121,48.45,-28.09,6.99,4.30,0.080,-0.897
1293625,49.33,-27.21,5.73,4.28,0.036,-0.883
1294129,50.21,-27.21,6.51,4.28,0.080,-0.838
1294632,48.45,-28.09,6.67,4.30,0.095,-0.853
1295136,54.61,-25.45,5.10,4.36,0.065,-0.986
1295640,48.45,-28.09,6.99,4.28,0.021,-0.897
1296144,48.45,-27.21,6.83,4.28,-0.024,-0.912
1296648,49.33,-28.09,6.51,4.27,-0.024,-0.927
1297152,49.33,-28.09,5.10,4.28,-0.068,-0.927
1297655,46.69,-28.09,6.20,4.28,-0.112,-0.912
1298159,51.09,-28.09,6.36,4.28,0.006,-0.868
1298663,48.45,-28.09,6.20,4.27,0.021,-0.912
1299167,49.33,-28.97,6.04,4.28,0.021,-0.883
1299671,48.45,-28.97,6.67,4.27,0.021,-0.912
1300174,49.33,-28.97,6.20,4.27,-0.068,-0.897
1300677,49.33,-28.97,6.67,4.28,-0.024,-0.942
1301181,45.81,-28.09,5.57,4.36,-0.290,-0.912
1301685,39.65,-30.73,8.56,4.43,0.139,-0.927
1302189,46.69,-25.45,8.09,3.86,-0.172,-1.282
1302692,49.33,-28.97,6.04,4.27,-0.009,-1.120
1303196,48.45,-28.97,6.67,4.27,0.006,-0.809
1303700,49.33,-28.97,6.83,4.25,0.021,-0.897
1304204,49.33,-28.97,6.67,4.23,-0.009,-0.912
1304708,46.69,-28.97,6.04,4.27,0.006,-0.912
1305211,48.45,-28.97,6.36,4.25,-0.024,-0.897
1305715,48.45,-28.97,6.67,4.23,0.095,-0.912
1306219,49.33,-28.97,6.99,4.23,-0.009,-0.912
1306723,40.53,-28.09,7.46,4.21,-0.038,-0.986
1307227,48.45,-28.97,6.83,4.25,0.036,-0.883
1307730,46.69,-28.97,6.20,4.21,0.006,-0.897
1308234,49.33,-29.85,6.36,4.23,0.065,-0.883
1308738,48.45,-29.85,6.36,4.23,0.080,-0.868
1309242,51.09,-29.85,6.83,4.21,0.065,-0.883
1309746,49.33,-29.85,6.51,4.21,0.125,-0.853
1310248,51.09,-29.85,6.67,4.23,0.139,-0.838
1310752,45.81,-29.85,6.83,4.27,-0.068,-0.794
1311256,25.58,-28.09,7.78,4.14,0.169,-0.883
1311760,68.69,-28.97,9.83,4.14,-0.038,-1.016
1312264,25.58,-17.53,9.51,4.19,-0.083,-0.809
1312768,49.33,-37.77,6.99,4.12,-0.068,-0.542
1313271,46.69,-30.73,6.36,4.19,0.125,-0.942
1313775,48.45,-30.73,6.67,4.19,0.095,-0.883
1314279,46.69,-30.73,6.83,4.19,0.139,-0.897
1314783,46.69,-30.73,6.83,4.21,0.110,-0.912
1315287,49.33,-29.85,6.51,4.19,0.036,-0.927
1315790,46.69,-29.85,6.04,4.19,0.006,-0.957
1316294,49.33,-29.85,6.04,4.21,0.021,-0.912
1316798,49.33,-29.85,6.83,4.19,0.036,-0.912
1317302,48.45,-29.85,6.67,4.19,0.051,-0.897
1317806,48.45,-29.85,6.51,4.10,0.036,-0.705
1318309,46.69,-30.73,6.36,4.19,0.080,-0.897
1318813,48.45,-29.85,6.36,4.17,0.021,-0.883
1319316,48.45,-29.85,6.36,4.19,-0.009,-0.912
1319820,49.33,-29.85,6.36,4.16,0.006,-0.897
1320324,48.45,-29.85,6.36,4.19,0.006,-0.912
1320827,51.09,-29.85,6.20,4.17,-0.038,-0.883
1321331,48.45,-30.73,6.20,4.16,-0.024,-0.868
1321835,46.69,-30.73,6.04,4.19,-0.068,-0.942
1322339,46.69,-30.73,6.67,4.17,-0.068,-0.897
1322843,51.09,-29.85,6.51,4.16,-0.053,-0.942
1323346,48.45,-29.85,6.20,4.16,0.080,-0.912
1323850,46.69,-30.73,7.15,4.17,0.110,-0.927
1324354,51.09,-30.73,6.67,4.14,0.021,-0.883
1324858,51.09,-30.73,7.15,4.14,0.036,-0.868
1325362,48.45,-30.73,6.51,4.16,0.095,-0.883
1325865,49.33,-29.85,6.83,4.14,0.065,-0.883
1326369,48.45,-29.85,6.36,4.17,0.036,-0.897
1326873,48.45,-29.85,6.36,4.14,0.110,-0.868
1327377,49.33,-30.73,6.20,4.14,0.125,-0.883
1327881,48.45,-30.73,6.20,4.14,0.110,-0.912
1328384,48.45,-30.73,6.20,4.14,0.051,-0.912
1328887,48.45,-30.73,6.67,4.16,0.036,-0.957
1329391,44.93,-30.73,7.30,4.17,0.332,-0.838
1329895,53.73,-43.92,6.20,4.36,0.213,-1.031
1330399,41.41,-37.77,9.35,3.83,0.080,-0.897
1330903,50.21,-37.77,7.30,4.10,0.199,-0.853
1331406,50.21,-30.73,6.04,4.16,0.051,-0.809
1331910,46.69,-30.73,5.88,4.14,0.051,-1.031
1332414,51.09,-30.73,6.67,4.12,-0.024,-0.912
1332918,51.09,-30.73,7.30,4.12,-0.053,-0.942
1333422,46.69,-30.73,6.36,4.12,-0.009,-0.942
1333925,48.45,-30.73,6.51,4.10,0.080,-0.927
1334429,46.69,-29.85,6.36,4.10,0.051,-0.883
1334933,42.29,-32.49,6.51,4.14,0.110,-0.927
1335437,48.45,-30.73,5.88,4.10,0.065,-0.838
1335941,51.09,-30.73,6.51,4.10,0.006,-0.883
1336444,49.33,-30.73,6.51,4.10,-0.038,-0.912
1336948,48.45,-31.61,6.20,4.12,0.065,-0.868
1337451,49.33,-31.61,6.51,4.10,0.110,-0.912
1337955,51.09,-30.73,6.20,4.10,0.036,-0.912
1338459,48.45,-31.61,6.99,4.10,0.006,-0.957
1338962,51.09,-31.61,6.99,4.10,0.051,-0.912
1339466,48.45,-31.61,5.88,4.08,0.125,-0.927
1339970,47.57,-31.61,6.20,4.08,0.110,-0.883
1340474,49.33,-31.61,6.36,4.08,-0.127,-0.912
1340978,46.69,-31.61,6.36,4.08,-0.068,-0.927
1341481,46.69,-31.61,6.67,4.10,0.021,-0.883
1341985,48.45,-31.61,6.67,4.08,0.080,-0.853
1342489,48.45,-31.61,6.20,4.08,-0.038,-0.912
1342993,49.33,-31.61,6.04,4.06,0.036,-0.927
1343497,48.45,-30.73,6.36,4.08,0.169,-0.897
1344001,49.33,-31.61,6.51,4.10,0.065,-0.868
1344504,46.69,-30.73,6.04,4.10,0.125,-0.912
1345008,48.45,-31.61,6.20,4.06,0.139,-0.883
1345512,46.69,-31.61,6.20,4.10,0.169,-0.897
1346015,51.09,-31.61,6.36,4.06,0.065,-0.897
1346519,51.09,-31.61,6.04,4.05,-0.053,-0.912
1347022,48.45,-31.61,6.20,4.05,-0.009,-0.912
1347526,49.33,-31.61,6.36,4.06,0.006,-0.927
1348030,51.09,-30.73,6.04,4.05,0.065,-0.868
1348534,54.61,-31.61,7.78,4.16,-0.172,-0.794
1349038,53.73,-28.09,9.83,4.12,-0.290,-0.957
1349541,25.58,-22.81,5.10,4.14,-0.098,-1.031
1350045,50.21,-29.85,9.35,3.68,-0.275,-1.223
1350549,48.45,-30.73,6.36,4.10,0.125,-1.075
1351053,50.21,-31.61,6.20,4.03,-0.009,-1.001
1351557,48.45,-31.61,5.73,4.05,0.051,-0.942
1352060,44.93,-35.13,6.67,3.84,0.006,-0.957
1352564,49.33,-31.61,5.88,4.05,-0.068,-0.927
1353068,49.33,-32.49,6.20,4.03,0.021,-0.883
1353572,49.33,-32.49,5.88,4.01,0.051,-0.912
